#
# Results on Monday December 18 2017 19:56:21 UTC.
# USER AGENT: Mozilla/5.0 (Windows NT 6.1; WOW64; rv:52.0) Gecko/20100101 Firefox/52.0
# Design number was non-random = 70
#
# Columns below this comment are as follows:
# 1. Time results were received.
# 2. MD5 hash of participant's IP address.
# 3. Controller name.
# 4. Item number.
# 5. Element number.
# 6. Type.
# 7. Group.
# 8. Field name.
# 9. Field value.
1513626981,3055e45df092c9bb4e93eb60d8c18ec8,Form,0,0,inst,NULL,Language,No
1513626981,3055e45df092c9bb4e93eb60d8c18ec8,Form,0,0,inst,NULL,Age,50-64
1513626981,3055e45df092c9bb4e93eb60d8c18ec8,Form,0,0,inst,NULL,Gender,Other/prefer not to say 
1513626981,3055e45df092c9bb4e93eb60d8c18ec8,Form,0,0,inst,NULL,Education,Ed3
1513626981,3055e45df092c9bb4e93eb60d8c18ec8,Form,0,0,inst,NULL,_REACTION_TIME_,5428
# Columns below this comment are as follows:
# 1. Time results were received.
# 2. MD5 hash of participant's IP address.
# 3. Controller name.
# 4. Item number.
# 5. Element number.
# 6. Type.
# 7. Group.
# 8. Field name.
# 9. Field value.
# 10. Field text.
# 11. Field correct text.
# 12. Field correct.
# 13. _REACTION_TIME_.
1513626981,3055e45df092c9bb4e93eb60d8c18ec8,MessageFormC,21,0,1.orig.train,NULL,who,Cube*,Cube group,Cube group,True,16808
1513626981,3055e45df092c9bb4e93eb60d8c18ec8,MessageFormC,21,0,1.orig.train,NULL,what,outdoor-mall,a pumping station,an airport,False,16808
1513626981,3055e45df092c9bb4e93eb60d8c18ec8,MessageFormC,21,0,1.orig.train,NULL,where,Bonoboland*,Bonoboland,Bonoboland,True,16808
1513626981,3055e45df092c9bb4e93eb60d8c18ec8,MessageFormC,21,0,1.orig.train,NULL,month,December,December,January,False,16808
1513626981,3055e45df092c9bb4e93eb60d8c18ec8,MessageFormC,21,0,1.orig.train,NULL,day,24,24,1,False,16808
1513626981,3055e45df092c9bb4e93eb60d8c18ec8,MessageFormC,21,0,1.orig.train,NULL,time,12:00,12:00,1:00,False,16808
1513626981,3055e45df092c9bb4e93eb60d8c18ec8,MessageFormC,21,0,1.orig.train,NULL,ampm,AM*,AM,AM,True,16808
1513626981,3055e45df092c9bb4e93eb60d8c18ec8,MessageFormC,14,0,1.orig.Scenario4,NULL,who,Turquoise,Turquoise group,Silver group,False,88800
1513626981,3055e45df092c9bb4e93eb60d8c18ec8,MessageFormC,14,0,1.orig.Scenario4,NULL,what,religious-school,a religious school,a secular school,False,88800
1513626981,3055e45df092c9bb4e93eb60d8c18ec8,MessageFormC,14,0,1.orig.Scenario4,NULL,where,Piland,Piland,Omicronland,False,88800
1513626981,3055e45df092c9bb4e93eb60d8c18ec8,MessageFormC,14,0,1.orig.Scenario4,NULL,month,February,February,January,False,88800
1513626981,3055e45df092c9bb4e93eb60d8c18ec8,MessageFormC,14,0,1.orig.Scenario4,NULL,day,4,4,1,False,88800
1513626981,3055e45df092c9bb4e93eb60d8c18ec8,MessageFormC,14,0,1.orig.Scenario4,NULL,time,3:00,3:00,9:00,False,88800
1513626981,3055e45df092c9bb4e93eb60d8c18ec8,MessageFormC,14,0,1.orig.Scenario4,NULL,ampm,AM*,AM,AM,True,88800
# Columns below this comment are as follows:
# 1. Time results were received.
# 2. MD5 hash of participant's IP address.
# 3. Controller name.
# 4. Item number.
# 5. Element number.
# 6. Type.
# 7. Group.
# 8. Field name.
# 9. Field value.
1513626981,3055e45df092c9bb4e93eb60d8c18ec8,Form,25,0,1.orig.comments,NULL,comments,I'm just testing
1513626981,3055e45df092c9bb4e93eb60d8c18ec8,Form,25,0,1.orig.comments,NULL,_REACTION_TIME_,8379
# Columns below this comment are as follows:
# 1. Time results were received.
# 2. MD5 hash of participant's IP address.
# 3. Controller name.
# 4. Item number.
# 5. Element number.
# 6. Type.
# 7. Group.
# 8. Field name.
# 9. Field value.
# 10. Field text.
# 11. Field correct text.
# 12. Field correct.
# 13. _REACTION_TIME_.
1513626981,3055e45df092c9bb4e93eb60d8c18ec8,MessageFormC,17,0,2.ext.train,NULL,who,Tetrahedron,Tetrahedron group,Cube group,False,16492
1513626981,3055e45df092c9bb4e93eb60d8c18ec8,MessageFormC,17,0,2.ext.train,NULL,what,military-base,a military base,an airport,False,16492
1513626981,3055e45df092c9bb4e93eb60d8c18ec8,MessageFormC,17,0,2.ext.train,NULL,where,Gibbonland,Gibbonland,Bonoboland,False,16492
1513626981,3055e45df092c9bb4e93eb60d8c18ec8,MessageFormC,17,0,2.ext.train,NULL,month,August,August,January,False,16492
1513626981,3055e45df092c9bb4e93eb60d8c18ec8,MessageFormC,17,0,2.ext.train,NULL,day,7,7,1,False,16492
1513626981,3055e45df092c9bb4e93eb60d8c18ec8,MessageFormC,17,0,2.ext.train,NULL,time,11:00,11:00,1:00,False,16492
1513626981,3055e45df092c9bb4e93eb60d8c18ec8,MessageFormC,17,0,2.ext.train,NULL,ampm,AM*,AM,AM,True,16492
1513626981,3055e45df092c9bb4e93eb60d8c18ec8,MessageFormC,12,0,2.ext.Scenario1,NULL,who,, &lt;no response&gt;,Violet group,False,timed-out
1513626981,3055e45df092c9bb4e93eb60d8c18ec8,MessageFormC,12,0,2.ext.Scenario1,NULL,what,, &lt;no response&gt;,a financial institution,False,timed-out
1513626981,3055e45df092c9bb4e93eb60d8c18ec8,MessageFormC,12,0,2.ext.Scenario1,NULL,where,, &lt;no response&gt;,Psiland,False,timed-out
1513626981,3055e45df092c9bb4e93eb60d8c18ec8,MessageFormC,12,0,2.ext.Scenario1,NULL,month,, &lt;no response&gt;,April,False,timed-out
1513626981,3055e45df092c9bb4e93eb60d8c18ec8,MessageFormC,12,0,2.ext.Scenario1,NULL,day,, &lt;no response&gt;,5,False,timed-out
1513626981,3055e45df092c9bb4e93eb60d8c18ec8,MessageFormC,12,0,2.ext.Scenario1,NULL,time,, &lt;no response&gt;,11:00,False,timed-out
1513626981,3055e45df092c9bb4e93eb60d8c18ec8,MessageFormC,12,0,2.ext.Scenario1,NULL,ampm,, &lt;no response&gt;,AM,False,timed-out
# Columns below this comment are as follows:
# 1. Time results were received.
# 2. MD5 hash of participant's IP address.
# 3. Controller name.
# 4. Item number.
# 5. Element number.
# 6. Type.
# 7. Group.
# 8. Field name.
# 9. Field value.
1513626981,3055e45df092c9bb4e93eb60d8c18ec8,Form,24,0,2.ext.comments,NULL,comments,Testing no response
1513626981,3055e45df092c9bb4e93eb60d8c18ec8,Form,24,0,2.ext.comments,NULL,_REACTION_TIME_,7618
1513626981,3055e45df092c9bb4e93eb60d8c18ec8,Form,26,0,end.a,NULL,mental,1
1513626981,3055e45df092c9bb4e93eb60d8c18ec8,Form,26,0,end.a,NULL,physical,3
1513626981,3055e45df092c9bb4e93eb60d8c18ec8,Form,26,0,end.a,NULL,temp,5
1513626981,3055e45df092c9bb4e93eb60d8c18ec8,Form,26,0,end.a,NULL,success,7
1513626981,3055e45df092c9bb4e93eb60d8c18ec8,Form,26,0,end.a,NULL,perf,9
1513626981,3055e45df092c9bb4e93eb60d8c18ec8,Form,26,0,end.a,NULL,stress,11
1513626981,3055e45df092c9bb4e93eb60d8c18ec8,Form,26,0,end.a,NULL,preference,13
1513626981,3055e45df092c9bb4e93eb60d8c18ec8,Form,26,0,end.a,NULL,_REACTION_TIME_,34364
#
# Results on Monday December 18 2017 20:26:17 UTC.
# USER AGENT: Mozilla/5.0 (Windows NT 6.1; WOW64; rv:52.0) Gecko/20100101 Firefox/52.0
# Design number was non-random = 71
#
# Columns below this comment are as follows:
# 1. Time results were received.
# 2. MD5 hash of participant's IP address.
# 3. Controller name.
# 4. Item number.
# 5. Element number.
# 6. Type.
# 7. Group.
# 8. Field name.
# 9. Field value.
1513628777,3055e45df092c9bb4e93eb60d8c18ec8,Form,0,0,inst,NULL,Language,Yes
1513628777,3055e45df092c9bb4e93eb60d8c18ec8,Form,0,0,inst,NULL,Age,18-29
1513628777,3055e45df092c9bb4e93eb60d8c18ec8,Form,0,0,inst,NULL,Gender,Female
1513628777,3055e45df092c9bb4e93eb60d8c18ec8,Form,0,0,inst,NULL,Education,Ed1
1513628777,3055e45df092c9bb4e93eb60d8c18ec8,Form,0,0,inst,NULL,_REACTION_TIME_,4333
# Columns below this comment are as follows:
# 1. Time results were received.
# 2. MD5 hash of participant's IP address.
# 3. Controller name.
# 4. Item number.
# 5. Element number.
# 6. Type.
# 7. Group.
# 8. Field name.
# 9. Field value.
# 10. Field text.
# 11. Field correct text.
# 12. Field correct.
# 13. _REACTION_TIME_.
1513628777,3055e45df092c9bb4e93eb60d8c18ec8,MessageFormC,17,0,1.ext.train,NULL,who,Cube*,Cube group,Cube group,True,10207
1513628777,3055e45df092c9bb4e93eb60d8c18ec8,MessageFormC,17,0,1.ext.train,NULL,what,airport*,an airport,an airport,True,10207
1513628777,3055e45df092c9bb4e93eb60d8c18ec8,MessageFormC,17,0,1.ext.train,NULL,where,Bonoboland*,Bonoboland,Bonoboland,True,10207
1513628777,3055e45df092c9bb4e93eb60d8c18ec8,MessageFormC,17,0,1.ext.train,NULL,month,January*,January,January,True,10207
1513628777,3055e45df092c9bb4e93eb60d8c18ec8,MessageFormC,17,0,1.ext.train,NULL,day,1*,1,1,True,10207
1513628777,3055e45df092c9bb4e93eb60d8c18ec8,MessageFormC,17,0,1.ext.train,NULL,time,1:00*,1:00,1:00,True,10207
1513628777,3055e45df092c9bb4e93eb60d8c18ec8,MessageFormC,17,0,1.ext.train,NULL,ampm,AM*,AM,AM,True,10207
1513628777,3055e45df092c9bb4e93eb60d8c18ec8,MessageFormC,12,0,1.ext.Scenario7,NULL,who,Circle,Circle group,Triangle group,False,12786
1513628777,3055e45df092c9bb4e93eb60d8c18ec8,MessageFormC,12,0,1.ext.Scenario7,NULL,what,airport,an airport,a cruise terminal,False,12786
1513628777,3055e45df092c9bb4e93eb60d8c18ec8,MessageFormC,12,0,1.ext.Scenario7,NULL,where,Spiderland,Spiderland,Tickland,False,12786
1513628777,3055e45df092c9bb4e93eb60d8c18ec8,MessageFormC,12,0,1.ext.Scenario7,NULL,month,January,January,September,False,12786
1513628777,3055e45df092c9bb4e93eb60d8c18ec8,MessageFormC,12,0,1.ext.Scenario7,NULL,day,1*,1,1,True,12786
1513628777,3055e45df092c9bb4e93eb60d8c18ec8,MessageFormC,12,0,1.ext.Scenario7,NULL,time,1:00,1:00,10:00,False,12786
1513628777,3055e45df092c9bb4e93eb60d8c18ec8,MessageFormC,12,0,1.ext.Scenario7,NULL,ampm,AM,AM,PM,False,12786
# Columns below this comment are as follows:
# 1. Time results were received.
# 2. MD5 hash of participant's IP address.
# 3. Controller name.
# 4. Item number.
# 5. Element number.
# 6. Type.
# 7. Group.
# 8. Field name.
# 9. Field value.
1513628777,3055e45df092c9bb4e93eb60d8c18ec8,Form,24,0,1.ext.comments,NULL,comments,Testing another time
1513628777,3055e45df092c9bb4e93eb60d8c18ec8,Form,24,0,1.ext.comments,NULL,_REACTION_TIME_,7731
# Columns below this comment are as follows:
# 1. Time results were received.
# 2. MD5 hash of participant's IP address.
# 3. Controller name.
# 4. Item number.
# 5. Element number.
# 6. Type.
# 7. Group.
# 8. Field name.
# 9. Field value.
# 10. Field text.
# 11. Field correct text.
# 12. Field correct.
# 13. _REACTION_TIME_.
1513628777,3055e45df092c9bb4e93eb60d8c18ec8,MessageFormC,21,0,2.orig.train,NULL,who,Cube*,Cube group,Cube group,True,11288
1513628777,3055e45df092c9bb4e93eb60d8c18ec8,MessageFormC,21,0,2.orig.train,NULL,what,airport*,an airport,an airport,True,11288
1513628777,3055e45df092c9bb4e93eb60d8c18ec8,MessageFormC,21,0,2.orig.train,NULL,where,Bonoboland*,Bonoboland,Bonoboland,True,11288
1513628777,3055e45df092c9bb4e93eb60d8c18ec8,MessageFormC,21,0,2.orig.train,NULL,month,January*,January,January,True,11288
1513628777,3055e45df092c9bb4e93eb60d8c18ec8,MessageFormC,21,0,2.orig.train,NULL,day,1*,1,1,True,11288
1513628777,3055e45df092c9bb4e93eb60d8c18ec8,MessageFormC,21,0,2.orig.train,NULL,time,1:00*,1:00,1:00,True,11288
1513628777,3055e45df092c9bb4e93eb60d8c18ec8,MessageFormC,21,0,2.orig.train,NULL,ampm,AM*,AM,AM,True,11288
1513628777,3055e45df092c9bb4e93eb60d8c18ec8,MessageFormC,15,0,2.orig.Scenario4,NULL,who,Blue,Blue group,Silver group,False,10591
1513628777,3055e45df092c9bb4e93eb60d8c18ec8,MessageFormC,15,0,2.orig.Scenario4,NULL,what,courthouse,a courthouse,a secular school,False,10591
1513628777,3055e45df092c9bb4e93eb60d8c18ec8,MessageFormC,15,0,2.orig.Scenario4,NULL,where,Muland,Muland,Omicronland,False,10591
1513628777,3055e45df092c9bb4e93eb60d8c18ec8,MessageFormC,15,0,2.orig.Scenario4,NULL,month,January*,January,January,True,10591
1513628777,3055e45df092c9bb4e93eb60d8c18ec8,MessageFormC,15,0,2.orig.Scenario4,NULL,day,1*,1,1,True,10591
1513628777,3055e45df092c9bb4e93eb60d8c18ec8,MessageFormC,15,0,2.orig.Scenario4,NULL,time,1:00,1:00,9:00,False,10591
1513628777,3055e45df092c9bb4e93eb60d8c18ec8,MessageFormC,15,0,2.orig.Scenario4,NULL,ampm,AM*,AM,AM,True,10591
# Columns below this comment are as follows:
# 1. Time results were received.
# 2. MD5 hash of participant's IP address.
# 3. Controller name.
# 4. Item number.
# 5. Element number.
# 6. Type.
# 7. Group.
# 8. Field name.
# 9. Field value.
1513628777,3055e45df092c9bb4e93eb60d8c18ec8,Form,25,0,2.orig.comments,NULL,comments,Testing... not sure about the "experiment will now begin"
1513628777,3055e45df092c9bb4e93eb60d8c18ec8,Form,25,0,2.orig.comments,NULL,_REACTION_TIME_,15303
1513628777,3055e45df092c9bb4e93eb60d8c18ec8,Form,26,0,end.b,NULL,mental,1
1513628777,3055e45df092c9bb4e93eb60d8c18ec8,Form,26,0,end.b,NULL,physical,3
1513628777,3055e45df092c9bb4e93eb60d8c18ec8,Form,26,0,end.b,NULL,temp,5
1513628777,3055e45df092c9bb4e93eb60d8c18ec8,Form,26,0,end.b,NULL,success,7
1513628777,3055e45df092c9bb4e93eb60d8c18ec8,Form,26,0,end.b,NULL,perf,9
1513628777,3055e45df092c9bb4e93eb60d8c18ec8,Form,26,0,end.b,NULL,stress,11
1513628777,3055e45df092c9bb4e93eb60d8c18ec8,Form,26,0,end.b,NULL,preference,13
1513628777,3055e45df092c9bb4e93eb60d8c18ec8,Form,26,0,end.b,NULL,_REACTION_TIME_,21479
#
# Results on Monday December 18 2017 20:47:46 UTC.
# USER AGENT: Mozilla/5.0 (Windows NT 6.1; WOW64; rv:52.0) Gecko/20100101 Firefox/52.0
# Design number was non-random = 72
#
# Columns below this comment are as follows:
# 1. Time results were received.
# 2. MD5 hash of participant's IP address.
# 3. Controller name.
# 4. Item number.
# 5. Element number.
# 6. Type.
# 7. Group.
# 8. Field name.
# 9. Field value.
1513630066,3055e45df092c9bb4e93eb60d8c18ec8,Form,0,0,inst,NULL,Language,No
1513630066,3055e45df092c9bb4e93eb60d8c18ec8,Form,0,0,inst,NULL,Age,30-49
1513630066,3055e45df092c9bb4e93eb60d8c18ec8,Form,0,0,inst,NULL,Gender,Male
1513630066,3055e45df092c9bb4e93eb60d8c18ec8,Form,0,0,inst,NULL,Education,Ed2
1513630066,3055e45df092c9bb4e93eb60d8c18ec8,Form,0,0,inst,NULL,_REACTION_TIME_,5399
# Columns below this comment are as follows:
# 1. Time results were received.
# 2. MD5 hash of participant's IP address.
# 3. Controller name.
# 4. Item number.
# 5. Element number.
# 6. Type.
# 7. Group.
# 8. Field name.
# 9. Field value.
# 10. Field text.
# 11. Field correct text.
# 12. Field correct.
# 13. _REACTION_TIME_.
1513630066,3055e45df092c9bb4e93eb60d8c18ec8,MessageFormC,17,0,1.ext.train,NULL,who,Tetrahedron,Tetrahedron group,Cube group,False,16080
1513630066,3055e45df092c9bb4e93eb60d8c18ec8,MessageFormC,17,0,1.ext.train,NULL,what,military-base,a military base,an airport,False,16080
1513630066,3055e45df092c9bb4e93eb60d8c18ec8,MessageFormC,17,0,1.ext.train,NULL,where,Gibbonland,Gibbonland,Bonoboland,False,16080
1513630066,3055e45df092c9bb4e93eb60d8c18ec8,MessageFormC,17,0,1.ext.train,NULL,month,February,February,January,False,16080
1513630066,3055e45df092c9bb4e93eb60d8c18ec8,MessageFormC,17,0,1.ext.train,NULL,day,2,2,1,False,16080
1513630066,3055e45df092c9bb4e93eb60d8c18ec8,MessageFormC,17,0,1.ext.train,NULL,time,2:00,2:00,1:00,False,16080
1513630066,3055e45df092c9bb4e93eb60d8c18ec8,MessageFormC,17,0,1.ext.train,NULL,ampm,PM,PM,AM,False,16080
1513630066,3055e45df092c9bb4e93eb60d8c18ec8,MessageFormC,13,0,1.ext.Scenario8,NULL,who,Steeler,Steeler group,Charger group,False,11673
1513630066,3055e45df092c9bb4e93eb60d8c18ec8,MessageFormC,13,0,1.ext.Scenario8,NULL,what,outdoor-mall,an outdoor mall,an indoor mall,False,11673
1513630066,3055e45df092c9bb4e93eb60d8c18ec8,MessageFormC,13,0,1.ext.Scenario8,NULL,where,Perchland,Perchland,Salmonland,False,11673
1513630066,3055e45df092c9bb4e93eb60d8c18ec8,MessageFormC,13,0,1.ext.Scenario8,NULL,month,June,June,December,False,11673
1513630066,3055e45df092c9bb4e93eb60d8c18ec8,MessageFormC,13,0,1.ext.Scenario8,NULL,day,5,5,15,False,11673
1513630066,3055e45df092c9bb4e93eb60d8c18ec8,MessageFormC,13,0,1.ext.Scenario8,NULL,time,10:00*,10:00,10:00,True,11673
1513630066,3055e45df092c9bb4e93eb60d8c18ec8,MessageFormC,13,0,1.ext.Scenario8,NULL,ampm,AM*,AM,AM,True,11673
# Columns below this comment are as follows:
# 1. Time results were received.
# 2. MD5 hash of participant's IP address.
# 3. Controller name.
# 4. Item number.
# 5. Element number.
# 6. Type.
# 7. Group.
# 8. Field name.
# 9. Field value.
1513630066,3055e45df092c9bb4e93eb60d8c18ec8,Form,24,0,1.ext.comments,NULL,comments,more testing
1513630066,3055e45df092c9bb4e93eb60d8c18ec8,Form,24,0,1.ext.comments,NULL,_REACTION_TIME_,7497
# Columns below this comment are as follows:
# 1. Time results were received.
# 2. MD5 hash of participant's IP address.
# 3. Controller name.
# 4. Item number.
# 5. Element number.
# 6. Type.
# 7. Group.
# 8. Field name.
# 9. Field value.
# 10. Field text.
# 11. Field correct text.
# 12. Field correct.
# 13. _REACTION_TIME_.
1513630066,3055e45df092c9bb4e93eb60d8c18ec8,MessageFormC,21,0,2.orig.train,NULL,who,Tetrahedron,Tetrahedron group,Cube group,False,8648
1513630066,3055e45df092c9bb4e93eb60d8c18ec8,MessageFormC,21,0,2.orig.train,NULL,what,military-base,a military base,an airport,False,8648
1513630066,3055e45df092c9bb4e93eb60d8c18ec8,MessageFormC,21,0,2.orig.train,NULL,where,Gibbonland,Gibbonland,Bonoboland,False,8648
1513630066,3055e45df092c9bb4e93eb60d8c18ec8,MessageFormC,21,0,2.orig.train,NULL,month,April,April,January,False,8648
1513630066,3055e45df092c9bb4e93eb60d8c18ec8,MessageFormC,21,0,2.orig.train,NULL,day,3,3,1,False,8648
1513630066,3055e45df092c9bb4e93eb60d8c18ec8,MessageFormC,21,0,2.orig.train,NULL,time,6:00,6:00,1:00,False,8648
1513630066,3055e45df092c9bb4e93eb60d8c18ec8,MessageFormC,21,0,2.orig.train,NULL,ampm,AM*,AM,AM,True,8648
1513630066,3055e45df092c9bb4e93eb60d8c18ec8,MessageFormC,15,0,2.orig.Scenario4,NULL,who,Rose,Rose group,Silver group,False,77753
1513630066,3055e45df092c9bb4e93eb60d8c18ec8,MessageFormC,15,0,2.orig.Scenario4,NULL,what,financial,a financial institution,a secular school,False,77753
1513630066,3055e45df092c9bb4e93eb60d8c18ec8,MessageFormC,15,0,2.orig.Scenario4,NULL,where,Piland,Piland,Omicronland,False,77753
1513630066,3055e45df092c9bb4e93eb60d8c18ec8,MessageFormC,15,0,2.orig.Scenario4,NULL,month,November,November,January,False,77753
1513630066,3055e45df092c9bb4e93eb60d8c18ec8,MessageFormC,15,0,2.orig.Scenario4,NULL,day,13,13,1,False,77753
1513630066,3055e45df092c9bb4e93eb60d8c18ec8,MessageFormC,15,0,2.orig.Scenario4,NULL,time,8:00,8:00,9:00,False,77753
1513630066,3055e45df092c9bb4e93eb60d8c18ec8,MessageFormC,15,0,2.orig.Scenario4,NULL,ampm,AM*,AM,AM,True,77753
# Columns below this comment are as follows:
# 1. Time results were received.
# 2. MD5 hash of participant's IP address.
# 3. Controller name.
# 4. Item number.
# 5. Element number.
# 6. Type.
# 7. Group.
# 8. Field name.
# 9. Field value.
1513630066,3055e45df092c9bb4e93eb60d8c18ec8,Form,25,0,2.orig.comments,NULL,comments,and more testing
1513630066,3055e45df092c9bb4e93eb60d8c18ec8,Form,25,0,2.orig.comments,NULL,_REACTION_TIME_,5029
1513630066,3055e45df092c9bb4e93eb60d8c18ec8,Form,26,0,end.b,NULL,mental,15
1513630066,3055e45df092c9bb4e93eb60d8c18ec8,Form,26,0,end.b,NULL,physical,14
1513630066,3055e45df092c9bb4e93eb60d8c18ec8,Form,26,0,end.b,NULL,temp,13
1513630066,3055e45df092c9bb4e93eb60d8c18ec8,Form,26,0,end.b,NULL,success,12
1513630066,3055e45df092c9bb4e93eb60d8c18ec8,Form,26,0,end.b,NULL,perf,11
1513630066,3055e45df092c9bb4e93eb60d8c18ec8,Form,26,0,end.b,NULL,stress,10
1513630066,3055e45df092c9bb4e93eb60d8c18ec8,Form,26,0,end.b,NULL,preference,9
1513630066,3055e45df092c9bb4e93eb60d8c18ec8,Form,26,0,end.b,NULL,_REACTION_TIME_,31052
#
# Results on Tuesday December 19 2017 14:16:34 UTC.
# USER AGENT: Mozilla/5.0 (Windows NT 6.1; WOW64; rv:52.0) Gecko/20100101 Firefox/52.0
# Design number was non-random = 73
#
# Columns below this comment are as follows:
# 1. Time results were received.
# 2. MD5 hash of participant's IP address.
# 3. Controller name.
# 4. Item number.
# 5. Element number.
# 6. Type.
# 7. Group.
# 8. Field name.
# 9. Field value.
1513692995,3055e45df092c9bb4e93eb60d8c18ec8,Form,0,0,inst,NULL,Language,Yes
1513692995,3055e45df092c9bb4e93eb60d8c18ec8,Form,0,0,inst,NULL,Age,30-49
1513692995,3055e45df092c9bb4e93eb60d8c18ec8,Form,0,0,inst,NULL,Gender,Female
1513692995,3055e45df092c9bb4e93eb60d8c18ec8,Form,0,0,inst,NULL,Education,Ed3
1513692995,3055e45df092c9bb4e93eb60d8c18ec8,Form,0,0,inst,NULL,_REACTION_TIME_,19416
# Columns below this comment are as follows:
# 1. Time results were received.
# 2. MD5 hash of participant's IP address.
# 3. Controller name.
# 4. Item number.
# 5. Element number.
# 6. Type.
# 7. Group.
# 8. Field name.
# 9. Field value.
# 10. Field text.
# 11. Field correct text.
# 12. Field correct.
# 13. _REACTION_TIME_.
1513692995,3055e45df092c9bb4e93eb60d8c18ec8,MessageFormC,21,0,1.orig.train,NULL,who,Cube*,Cube group,Cube group,True,10841
1513692995,3055e45df092c9bb4e93eb60d8c18ec8,MessageFormC,21,0,1.orig.train,NULL,what,airport*,an airport,an airport,True,10841
1513692995,3055e45df092c9bb4e93eb60d8c18ec8,MessageFormC,21,0,1.orig.train,NULL,where,Bonoboland*,Bonoboland,Bonoboland,True,10841
1513692995,3055e45df092c9bb4e93eb60d8c18ec8,MessageFormC,21,0,1.orig.train,NULL,month,January*,January,January,True,10841
1513692995,3055e45df092c9bb4e93eb60d8c18ec8,MessageFormC,21,0,1.orig.train,NULL,day,2,2,1,False,10841
1513692995,3055e45df092c9bb4e93eb60d8c18ec8,MessageFormC,21,0,1.orig.train,NULL,time,1:00*,1:00,1:00,True,10841
1513692995,3055e45df092c9bb4e93eb60d8c18ec8,MessageFormC,21,0,1.orig.train,NULL,ampm,AM*,AM,AM,True,10841
1513692995,3055e45df092c9bb4e93eb60d8c18ec8,MessageFormC,14,0,1.orig.Scenario1,NULL,who,, &lt;no response&gt;,Violet group,False,timed-out
1513692995,3055e45df092c9bb4e93eb60d8c18ec8,MessageFormC,14,0,1.orig.Scenario1,NULL,what,, &lt;no response&gt;,a financial institution,False,timed-out
1513692995,3055e45df092c9bb4e93eb60d8c18ec8,MessageFormC,14,0,1.orig.Scenario1,NULL,where,, &lt;no response&gt;,Psiland,False,timed-out
1513692995,3055e45df092c9bb4e93eb60d8c18ec8,MessageFormC,14,0,1.orig.Scenario1,NULL,month,, &lt;no response&gt;,April,False,timed-out
1513692995,3055e45df092c9bb4e93eb60d8c18ec8,MessageFormC,14,0,1.orig.Scenario1,NULL,day,, &lt;no response&gt;,5,False,timed-out
1513692995,3055e45df092c9bb4e93eb60d8c18ec8,MessageFormC,14,0,1.orig.Scenario1,NULL,time,, &lt;no response&gt;,11:00,False,timed-out
1513692995,3055e45df092c9bb4e93eb60d8c18ec8,MessageFormC,14,0,1.orig.Scenario1,NULL,ampm,, &lt;no response&gt;,AM,False,timed-out
# Columns below this comment are as follows:
# 1. Time results were received.
# 2. MD5 hash of participant's IP address.
# 3. Controller name.
# 4. Item number.
# 5. Element number.
# 6. Type.
# 7. Group.
# 8. Field name.
# 9. Field value.
1513692995,3055e45df092c9bb4e93eb60d8c18ec8,Form,25,0,1.orig.comments,NULL,comments,I let it time out
1513692995,3055e45df092c9bb4e93eb60d8c18ec8,Form,25,0,1.orig.comments,NULL,_REACTION_TIME_,8206
# Columns below this comment are as follows:
# 1. Time results were received.
# 2. MD5 hash of participant's IP address.
# 3. Controller name.
# 4. Item number.
# 5. Element number.
# 6. Type.
# 7. Group.
# 8. Field name.
# 9. Field value.
# 10. Field text.
# 11. Field correct text.
# 12. Field correct.
# 13. _REACTION_TIME_.
1513692995,3055e45df092c9bb4e93eb60d8c18ec8,MessageFormC,17,0,2.ext.train,NULL,who,Tetrahedron,Tetrahedron group,Cube group,False,15505
1513692995,3055e45df092c9bb4e93eb60d8c18ec8,MessageFormC,17,0,2.ext.train,NULL,what,military-base,a military base,an airport,False,15505
1513692995,3055e45df092c9bb4e93eb60d8c18ec8,MessageFormC,17,0,2.ext.train,NULL,where,Gibbonland,Gibbonland,Bonoboland,False,15505
1513692995,3055e45df092c9bb4e93eb60d8c18ec8,MessageFormC,17,0,2.ext.train,NULL,month,June,June,January,False,15505
1513692995,3055e45df092c9bb4e93eb60d8c18ec8,MessageFormC,17,0,2.ext.train,NULL,day,9,9,1,False,15505
1513692995,3055e45df092c9bb4e93eb60d8c18ec8,MessageFormC,17,0,2.ext.train,NULL,time,8:00,8:00,1:00,False,15505
1513692995,3055e45df092c9bb4e93eb60d8c18ec8,MessageFormC,17,0,2.ext.train,NULL,ampm,PM,PM,AM,False,15505
1513692995,3055e45df092c9bb4e93eb60d8c18ec8,MessageFormC,12,0,2.ext.Scenario7,NULL,who,Triangle*,Triangle group,Triangle group,True,68897
1513692995,3055e45df092c9bb4e93eb60d8c18ec8,MessageFormC,12,0,2.ext.Scenario7,NULL,what,cruise-terminal*,a cruise terminal,a cruise terminal,True,68897
1513692995,3055e45df092c9bb4e93eb60d8c18ec8,MessageFormC,12,0,2.ext.Scenario7,NULL,where,Tickland*,Tickland,Tickland,True,68897
1513692995,3055e45df092c9bb4e93eb60d8c18ec8,MessageFormC,12,0,2.ext.Scenario7,NULL,month,September*,September,September,True,68897
1513692995,3055e45df092c9bb4e93eb60d8c18ec8,MessageFormC,12,0,2.ext.Scenario7,NULL,day,1*,1,1,True,68897
1513692995,3055e45df092c9bb4e93eb60d8c18ec8,MessageFormC,12,0,2.ext.Scenario7,NULL,time,10:00*,10:00,10:00,True,68897
1513692995,3055e45df092c9bb4e93eb60d8c18ec8,MessageFormC,12,0,2.ext.Scenario7,NULL,ampm,PM*,PM,PM,True,68897
# Columns below this comment are as follows:
# 1. Time results were received.
# 2. MD5 hash of participant's IP address.
# 3. Controller name.
# 4. Item number.
# 5. Element number.
# 6. Type.
# 7. Group.
# 8. Field name.
# 9. Field value.
1513692995,3055e45df092c9bb4e93eb60d8c18ec8,Form,24,0,2.ext.comments,NULL,comments,Good
1513692995,3055e45df092c9bb4e93eb60d8c18ec8,Form,24,0,2.ext.comments,NULL,_REACTION_TIME_,5829
1513692995,3055e45df092c9bb4e93eb60d8c18ec8,Form,26,0,end.b,NULL,mental,11
1513692995,3055e45df092c9bb4e93eb60d8c18ec8,Form,26,0,end.b,NULL,physical,11
1513692995,3055e45df092c9bb4e93eb60d8c18ec8,Form,26,0,end.b,NULL,temp,11
1513692995,3055e45df092c9bb4e93eb60d8c18ec8,Form,26,0,end.b,NULL,success,11
1513692995,3055e45df092c9bb4e93eb60d8c18ec8,Form,26,0,end.b,NULL,perf,11
1513692995,3055e45df092c9bb4e93eb60d8c18ec8,Form,26,0,end.b,NULL,stress,11
1513692995,3055e45df092c9bb4e93eb60d8c18ec8,Form,26,0,end.b,NULL,preference,11
1513692995,3055e45df092c9bb4e93eb60d8c18ec8,Form,26,0,end.b,NULL,_REACTION_TIME_,105777
#
# Results on Tuesday December 19 2017 15:07:40 UTC.
# USER AGENT: Mozilla/5.0 (Windows NT 6.1; WOW64; rv:52.0) Gecko/20100101 Firefox/52.0
# Design number was non-random = 70
#
# Columns below this comment are as follows:
# 1. Time results were received.
# 2. MD5 hash of participant's IP address.
# 3. Controller name.
# 4. Item number.
# 5. Element number.
# 6. Type.
# 7. Group.
# 8. Field name.
# 9. Field value.
1513696060,3055e45df092c9bb4e93eb60d8c18ec8,Form,0,0,inst,NULL,Language,Yes
1513696060,3055e45df092c9bb4e93eb60d8c18ec8,Form,0,0,inst,NULL,Age,30-49
1513696060,3055e45df092c9bb4e93eb60d8c18ec8,Form,0,0,inst,NULL,Gender,Female
1513696060,3055e45df092c9bb4e93eb60d8c18ec8,Form,0,0,inst,NULL,Education,Ed3
1513696060,3055e45df092c9bb4e93eb60d8c18ec8,Form,0,0,inst,NULL,_REACTION_TIME_,7342
# Columns below this comment are as follows:
# 1. Time results were received.
# 2. MD5 hash of participant's IP address.
# 3. Controller name.
# 4. Item number.
# 5. Element number.
# 6. Type.
# 7. Group.
# 8. Field name.
# 9. Field value.
# 10. Field text.
# 11. Field correct text.
# 12. Field correct.
# 13. _REACTION_TIME_.
1513696060,3055e45df092c9bb4e93eb60d8c18ec8,MessageFormC,21,0,1.orig.train,NULL,who,Tetrahedron,Tetrahedron group,Cube group,False,9686
1513696060,3055e45df092c9bb4e93eb60d8c18ec8,MessageFormC,21,0,1.orig.train,NULL,what,military-base,a military base,an airport,False,9686
1513696060,3055e45df092c9bb4e93eb60d8c18ec8,MessageFormC,21,0,1.orig.train,NULL,where,Bonoboland*,Bonoboland,Bonoboland,True,9686
1513696060,3055e45df092c9bb4e93eb60d8c18ec8,MessageFormC,21,0,1.orig.train,NULL,month,September,September,January,False,9686
1513696060,3055e45df092c9bb4e93eb60d8c18ec8,MessageFormC,21,0,1.orig.train,NULL,day,16,16,1,False,9686
1513696060,3055e45df092c9bb4e93eb60d8c18ec8,MessageFormC,21,0,1.orig.train,NULL,time,3:00,3:00,1:00,False,9686
1513696060,3055e45df092c9bb4e93eb60d8c18ec8,MessageFormC,21,0,1.orig.train,NULL,ampm,PM,PM,AM,False,9686
1513696060,3055e45df092c9bb4e93eb60d8c18ec8,MessageFormC,15,0,1.orig.Scenario8,NULL,who,Raider,Raider group,Charger group,False,12234
1513696060,3055e45df092c9bb4e93eb60d8c18ec8,MessageFormC,15,0,1.orig.Scenario8,NULL,what,stock-market,a stock market,an indoor mall,False,12234
1513696060,3055e45df092c9bb4e93eb60d8c18ec8,MessageFormC,15,0,1.orig.Scenario8,NULL,where,Sharkland,Sharkland,Salmonland,False,12234
1513696060,3055e45df092c9bb4e93eb60d8c18ec8,MessageFormC,15,0,1.orig.Scenario8,NULL,month,December*,December,December,True,12234
1513696060,3055e45df092c9bb4e93eb60d8c18ec8,MessageFormC,15,0,1.orig.Scenario8,NULL,day,11,11,15,False,12234
1513696060,3055e45df092c9bb4e93eb60d8c18ec8,MessageFormC,15,0,1.orig.Scenario8,NULL,time,10:00*,10:00,10:00,True,12234
1513696060,3055e45df092c9bb4e93eb60d8c18ec8,MessageFormC,15,0,1.orig.Scenario8,NULL,ampm,AM*,AM,AM,True,12234
# Columns below this comment are as follows:
# 1. Time results were received.
# 2. MD5 hash of participant's IP address.
# 3. Controller name.
# 4. Item number.
# 5. Element number.
# 6. Type.
# 7. Group.
# 8. Field name.
# 9. Field value.
1513696060,3055e45df092c9bb4e93eb60d8c18ec8,Form,25,0,1.orig.comments,NULL,comments,
1513696060,3055e45df092c9bb4e93eb60d8c18ec8,Form,25,0,1.orig.comments,NULL,_REACTION_TIME_,1352
# Columns below this comment are as follows:
# 1. Time results were received.
# 2. MD5 hash of participant's IP address.
# 3. Controller name.
# 4. Item number.
# 5. Element number.
# 6. Type.
# 7. Group.
# 8. Field name.
# 9. Field value.
# 10. Field text.
# 11. Field correct text.
# 12. Field correct.
# 13. _REACTION_TIME_.
1513696060,3055e45df092c9bb4e93eb60d8c18ec8,MessageFormC,17,0,2.ext.train,NULL,who,Tetrahedron,Tetrahedron group,Cube group,False,11026
1513696060,3055e45df092c9bb4e93eb60d8c18ec8,MessageFormC,17,0,2.ext.train,NULL,what,airport*,an airport,an airport,True,11026
1513696060,3055e45df092c9bb4e93eb60d8c18ec8,MessageFormC,17,0,2.ext.train,NULL,where,Gibbonland,Gibbonland,Bonoboland,False,11026
1513696060,3055e45df092c9bb4e93eb60d8c18ec8,MessageFormC,17,0,2.ext.train,NULL,month,March,March,January,False,11026
1513696060,3055e45df092c9bb4e93eb60d8c18ec8,MessageFormC,17,0,2.ext.train,NULL,day,30,30,1,False,11026
1513696060,3055e45df092c9bb4e93eb60d8c18ec8,MessageFormC,17,0,2.ext.train,NULL,time,6:00,6:00,1:00,False,11026
1513696060,3055e45df092c9bb4e93eb60d8c18ec8,MessageFormC,17,0,2.ext.train,NULL,ampm,PM,PM,AM,False,11026
1513696060,3055e45df092c9bb4e93eb60d8c18ec8,MessageFormC,12,0,2.ext.Scenario1,NULL,who,Violet*,Violet group,Violet group,True,57263
1513696060,3055e45df092c9bb4e93eb60d8c18ec8,MessageFormC,12,0,2.ext.Scenario1,NULL,what,financial-institution*,a financial institution,a financial institution,True,57263
1513696060,3055e45df092c9bb4e93eb60d8c18ec8,MessageFormC,12,0,2.ext.Scenario1,NULL,where,Psiland*,Psiland,Psiland,True,57263
1513696060,3055e45df092c9bb4e93eb60d8c18ec8,MessageFormC,12,0,2.ext.Scenario1,NULL,month,April*,April,April,True,57263
1513696060,3055e45df092c9bb4e93eb60d8c18ec8,MessageFormC,12,0,2.ext.Scenario1,NULL,day,5*,5,5,True,57263
1513696060,3055e45df092c9bb4e93eb60d8c18ec8,MessageFormC,12,0,2.ext.Scenario1,NULL,time,11:00*,11:00,11:00,True,57263
1513696060,3055e45df092c9bb4e93eb60d8c18ec8,MessageFormC,12,0,2.ext.Scenario1,NULL,ampm,AM*,AM,AM,True,57263
# Columns below this comment are as follows:
# 1. Time results were received.
# 2. MD5 hash of participant's IP address.
# 3. Controller name.
# 4. Item number.
# 5. Element number.
# 6. Type.
# 7. Group.
# 8. Field name.
# 9. Field value.
1513696060,3055e45df092c9bb4e93eb60d8c18ec8,Form,24,0,2.ext.comments,NULL,comments,
1513696060,3055e45df092c9bb4e93eb60d8c18ec8,Form,24,0,2.ext.comments,NULL,_REACTION_TIME_,1274
1513696060,3055e45df092c9bb4e93eb60d8c18ec8,Form,26,0,end.b,NULL,mental,18
1513696060,3055e45df092c9bb4e93eb60d8c18ec8,Form,26,0,end.b,NULL,physical,18
1513696060,3055e45df092c9bb4e93eb60d8c18ec8,Form,26,0,end.b,NULL,temp,18
1513696060,3055e45df092c9bb4e93eb60d8c18ec8,Form,26,0,end.b,NULL,success,18
1513696060,3055e45df092c9bb4e93eb60d8c18ec8,Form,26,0,end.b,NULL,perf,18
1513696060,3055e45df092c9bb4e93eb60d8c18ec8,Form,26,0,end.b,NULL,stress,18
1513696060,3055e45df092c9bb4e93eb60d8c18ec8,Form,26,0,end.b,NULL,preference,18
1513696060,3055e45df092c9bb4e93eb60d8c18ec8,Form,26,0,end.b,NULL,_REACTION_TIME_,5739
#
# Results on Tuesday December 19 2017 15:10:37 UTC.
# USER AGENT: Mozilla/5.0 (Windows NT 6.1; WOW64; rv:52.0) Gecko/20100101 Firefox/52.0
# Design number was non-random = 71
#
# Columns below this comment are as follows:
# 1. Time results were received.
# 2. MD5 hash of participant's IP address.
# 3. Controller name.
# 4. Item number.
# 5. Element number.
# 6. Type.
# 7. Group.
# 8. Field name.
# 9. Field value.
1513696238,3055e45df092c9bb4e93eb60d8c18ec8,Form,0,0,inst,NULL,Language,Yes
1513696238,3055e45df092c9bb4e93eb60d8c18ec8,Form,0,0,inst,NULL,Age,30-49
1513696238,3055e45df092c9bb4e93eb60d8c18ec8,Form,0,0,inst,NULL,Gender,Female
1513696238,3055e45df092c9bb4e93eb60d8c18ec8,Form,0,0,inst,NULL,Education,Ed3
1513696238,3055e45df092c9bb4e93eb60d8c18ec8,Form,0,0,inst,NULL,_REACTION_TIME_,5886
# Columns below this comment are as follows:
# 1. Time results were received.
# 2. MD5 hash of participant's IP address.
# 3. Controller name.
# 4. Item number.
# 5. Element number.
# 6. Type.
# 7. Group.
# 8. Field name.
# 9. Field value.
# 10. Field text.
# 11. Field correct text.
# 12. Field correct.
# 13. _REACTION_TIME_.
1513696238,3055e45df092c9bb4e93eb60d8c18ec8,MessageFormC,21,0,1.orig.train,NULL,who,Tetrahedron,Tetrahedron group,Cube group,False,11796
1513696238,3055e45df092c9bb4e93eb60d8c18ec8,MessageFormC,21,0,1.orig.train,NULL,what,military-base,a military base,an airport,False,11796
1513696238,3055e45df092c9bb4e93eb60d8c18ec8,MessageFormC,21,0,1.orig.train,NULL,where,Lemurland,Lemurland,Bonoboland,False,11796
1513696238,3055e45df092c9bb4e93eb60d8c18ec8,MessageFormC,21,0,1.orig.train,NULL,month,June,June,January,False,11796
1513696238,3055e45df092c9bb4e93eb60d8c18ec8,MessageFormC,21,0,1.orig.train,NULL,day,30,30,1,False,11796
1513696238,3055e45df092c9bb4e93eb60d8c18ec8,MessageFormC,21,0,1.orig.train,NULL,time,11:00,11:00,1:00,False,11796
1513696238,3055e45df092c9bb4e93eb60d8c18ec8,MessageFormC,21,0,1.orig.train,NULL,ampm,AM*,AM,AM,True,11796
1513696238,3055e45df092c9bb4e93eb60d8c18ec8,MessageFormC,15,0,1.orig.Scenario7,NULL,who,Rectangle,Rectangle group,Triangle group,False,15899
1513696238,3055e45df092c9bb4e93eb60d8c18ec8,MessageFormC,15,0,1.orig.Scenario7,NULL,what,power-plant,a power plant,a cruise terminal,False,15899
1513696238,3055e45df092c9bb4e93eb60d8c18ec8,MessageFormC,15,0,1.orig.Scenario7,NULL,where,Spiderland,Spiderland,Tickland,False,15899
1513696238,3055e45df092c9bb4e93eb60d8c18ec8,MessageFormC,15,0,1.orig.Scenario7,NULL,month,October,October,September,False,15899
1513696238,3055e45df092c9bb4e93eb60d8c18ec8,MessageFormC,15,0,1.orig.Scenario7,NULL,day,18,18,1,False,15899
1513696238,3055e45df092c9bb4e93eb60d8c18ec8,MessageFormC,15,0,1.orig.Scenario7,NULL,time,11:00,11:00,10:00,False,15899
1513696238,3055e45df092c9bb4e93eb60d8c18ec8,MessageFormC,15,0,1.orig.Scenario7,NULL,ampm,AM,AM,PM,False,15899
# Columns below this comment are as follows:
# 1. Time results were received.
# 2. MD5 hash of participant's IP address.
# 3. Controller name.
# 4. Item number.
# 5. Element number.
# 6. Type.
# 7. Group.
# 8. Field name.
# 9. Field value.
1513696238,3055e45df092c9bb4e93eb60d8c18ec8,Form,25,0,1.orig.comments,NULL,comments,
1513696238,3055e45df092c9bb4e93eb60d8c18ec8,Form,25,0,1.orig.comments,NULL,_REACTION_TIME_,1182
# Columns below this comment are as follows:
# 1. Time results were received.
# 2. MD5 hash of participant's IP address.
# 3. Controller name.
# 4. Item number.
# 5. Element number.
# 6. Type.
# 7. Group.
# 8. Field name.
# 9. Field value.
# 10. Field text.
# 11. Field correct text.
# 12. Field correct.
# 13. _REACTION_TIME_.
1513696238,3055e45df092c9bb4e93eb60d8c18ec8,MessageFormC,17,0,2.ext.train,NULL,who,Tetrahedron,Tetrahedron group,Cube group,False,11289
1513696238,3055e45df092c9bb4e93eb60d8c18ec8,MessageFormC,17,0,2.ext.train,NULL,what,military-base,a military base,an airport,False,11289
1513696238,3055e45df092c9bb4e93eb60d8c18ec8,MessageFormC,17,0,2.ext.train,NULL,where,Gibbonland,Gibbonland,Bonoboland,False,11289
1513696238,3055e45df092c9bb4e93eb60d8c18ec8,MessageFormC,17,0,2.ext.train,NULL,month,September,September,January,False,11289
1513696238,3055e45df092c9bb4e93eb60d8c18ec8,MessageFormC,17,0,2.ext.train,NULL,day,16,16,1,False,11289
1513696238,3055e45df092c9bb4e93eb60d8c18ec8,MessageFormC,17,0,2.ext.train,NULL,time,9:00,9:00,1:00,False,11289
1513696238,3055e45df092c9bb4e93eb60d8c18ec8,MessageFormC,17,0,2.ext.train,NULL,ampm,PM,PM,AM,False,11289
1513696238,3055e45df092c9bb4e93eb60d8c18ec8,MessageFormC,13,0,2.ext.Scenario8,NULL,who,Charger*,Charger group,Charger group,True,32469
1513696238,3055e45df092c9bb4e93eb60d8c18ec8,MessageFormC,13,0,2.ext.Scenario8,NULL,what,indoor-mall*,an indoor mall,an indoor mall,True,32469
1513696238,3055e45df092c9bb4e93eb60d8c18ec8,MessageFormC,13,0,2.ext.Scenario8,NULL,where,Salmonland*,Salmonland,Salmonland,True,32469
1513696238,3055e45df092c9bb4e93eb60d8c18ec8,MessageFormC,13,0,2.ext.Scenario8,NULL,month,December*,December,December,True,32469
1513696238,3055e45df092c9bb4e93eb60d8c18ec8,MessageFormC,13,0,2.ext.Scenario8,NULL,day,15*,15,15,True,32469
1513696238,3055e45df092c9bb4e93eb60d8c18ec8,MessageFormC,13,0,2.ext.Scenario8,NULL,time,10:00*,10:00,10:00,True,32469
1513696238,3055e45df092c9bb4e93eb60d8c18ec8,MessageFormC,13,0,2.ext.Scenario8,NULL,ampm,AM*,AM,AM,True,32469
# Columns below this comment are as follows:
# 1. Time results were received.
# 2. MD5 hash of participant's IP address.
# 3. Controller name.
# 4. Item number.
# 5. Element number.
# 6. Type.
# 7. Group.
# 8. Field name.
# 9. Field value.
1513696238,3055e45df092c9bb4e93eb60d8c18ec8,Form,24,0,2.ext.comments,NULL,comments,
1513696238,3055e45df092c9bb4e93eb60d8c18ec8,Form,24,0,2.ext.comments,NULL,_REACTION_TIME_,1213
1513696238,3055e45df092c9bb4e93eb60d8c18ec8,Form,26,0,end.a,NULL,mental,20
1513696238,3055e45df092c9bb4e93eb60d8c18ec8,Form,26,0,end.a,NULL,physical,20
1513696238,3055e45df092c9bb4e93eb60d8c18ec8,Form,26,0,end.a,NULL,temp,20
1513696238,3055e45df092c9bb4e93eb60d8c18ec8,Form,26,0,end.a,NULL,success,20
1513696238,3055e45df092c9bb4e93eb60d8c18ec8,Form,26,0,end.a,NULL,perf,20
1513696238,3055e45df092c9bb4e93eb60d8c18ec8,Form,26,0,end.a,NULL,stress,20
1513696238,3055e45df092c9bb4e93eb60d8c18ec8,Form,26,0,end.a,NULL,preference,20
1513696238,3055e45df092c9bb4e93eb60d8c18ec8,Form,26,0,end.a,NULL,_REACTION_TIME_,7872
#
# Results on Tuesday December 19 2017 15:12:17 UTC.
# USER AGENT: Mozilla/5.0 (Windows NT 6.1; WOW64; rv:52.0) Gecko/20100101 Firefox/52.0
# Design number was non-random = 72
#
# Columns below this comment are as follows:
# 1. Time results were received.
# 2. MD5 hash of participant's IP address.
# 3. Controller name.
# 4. Item number.
# 5. Element number.
# 6. Type.
# 7. Group.
# 8. Field name.
# 9. Field value.
1513696337,3055e45df092c9bb4e93eb60d8c18ec8,Form,0,0,inst,NULL,Language,Yes
1513696337,3055e45df092c9bb4e93eb60d8c18ec8,Form,0,0,inst,NULL,Age,30-49
1513696337,3055e45df092c9bb4e93eb60d8c18ec8,Form,0,0,inst,NULL,Gender,Female
1513696337,3055e45df092c9bb4e93eb60d8c18ec8,Form,0,0,inst,NULL,Education,Ed3
1513696337,3055e45df092c9bb4e93eb60d8c18ec8,Form,0,0,inst,NULL,_REACTION_TIME_,6224
# Columns below this comment are as follows:
# 1. Time results were received.
# 2. MD5 hash of participant's IP address.
# 3. Controller name.
# 4. Item number.
# 5. Element number.
# 6. Type.
# 7. Group.
# 8. Field name.
# 9. Field value.
# 10. Field text.
# 11. Field correct text.
# 12. Field correct.
# 13. _REACTION_TIME_.
1513696337,3055e45df092c9bb4e93eb60d8c18ec8,MessageFormC,21,0,1.orig.train,NULL,who,Tetrahedron,Tetrahedron group,Cube group,False,11225
1513696337,3055e45df092c9bb4e93eb60d8c18ec8,MessageFormC,21,0,1.orig.train,NULL,what,outdoor-mall,a pumping station,an airport,False,11225
1513696337,3055e45df092c9bb4e93eb60d8c18ec8,MessageFormC,21,0,1.orig.train,NULL,where,Lemurland,Lemurland,Bonoboland,False,11225
1513696337,3055e45df092c9bb4e93eb60d8c18ec8,MessageFormC,21,0,1.orig.train,NULL,month,September,September,January,False,11225
1513696337,3055e45df092c9bb4e93eb60d8c18ec8,MessageFormC,21,0,1.orig.train,NULL,day,11,11,1,False,11225
1513696337,3055e45df092c9bb4e93eb60d8c18ec8,MessageFormC,21,0,1.orig.train,NULL,time,10:00,10:00,1:00,False,11225
1513696337,3055e45df092c9bb4e93eb60d8c18ec8,MessageFormC,21,0,1.orig.train,NULL,ampm,PM,PM,AM,False,11225
1513696337,3055e45df092c9bb4e93eb60d8c18ec8,MessageFormC,15,0,1.orig.Scenario4,NULL,who,Turquoise,Turquoise group,Silver group,False,17434
1513696337,3055e45df092c9bb4e93eb60d8c18ec8,MessageFormC,15,0,1.orig.Scenario4,NULL,what,financial,a financial institution,a secular school,False,17434
1513696337,3055e45df092c9bb4e93eb60d8c18ec8,MessageFormC,15,0,1.orig.Scenario4,NULL,where,Omicronland*,Omicronland,Omicronland,True,17434
1513696337,3055e45df092c9bb4e93eb60d8c18ec8,MessageFormC,15,0,1.orig.Scenario4,NULL,month,November,November,January,False,17434
1513696337,3055e45df092c9bb4e93eb60d8c18ec8,MessageFormC,15,0,1.orig.Scenario4,NULL,day,19,19,1,False,17434
1513696337,3055e45df092c9bb4e93eb60d8c18ec8,MessageFormC,15,0,1.orig.Scenario4,NULL,time,8:00,8:00,9:00,False,17434
1513696337,3055e45df092c9bb4e93eb60d8c18ec8,MessageFormC,15,0,1.orig.Scenario4,NULL,ampm,AM*,AM,AM,True,17434
# Columns below this comment are as follows:
# 1. Time results were received.
# 2. MD5 hash of participant's IP address.
# 3. Controller name.
# 4. Item number.
# 5. Element number.
# 6. Type.
# 7. Group.
# 8. Field name.
# 9. Field value.
1513696337,3055e45df092c9bb4e93eb60d8c18ec8,Form,25,0,1.orig.comments,NULL,comments,
1513696337,3055e45df092c9bb4e93eb60d8c18ec8,Form,25,0,1.orig.comments,NULL,_REACTION_TIME_,1178
# Columns below this comment are as follows:
# 1. Time results were received.
# 2. MD5 hash of participant's IP address.
# 3. Controller name.
# 4. Item number.
# 5. Element number.
# 6. Type.
# 7. Group.
# 8. Field name.
# 9. Field value.
# 10. Field text.
# 11. Field correct text.
# 12. Field correct.
# 13. _REACTION_TIME_.
1513696337,3055e45df092c9bb4e93eb60d8c18ec8,MessageFormC,17,0,2.ext.train,NULL,who,Sphere,Sphere group,Cube group,False,9394
1513696337,3055e45df092c9bb4e93eb60d8c18ec8,MessageFormC,17,0,2.ext.train,NULL,what,military-base,a military base,an airport,False,9394
1513696337,3055e45df092c9bb4e93eb60d8c18ec8,MessageFormC,17,0,2.ext.train,NULL,where,Bonoboland*,Bonoboland,Bonoboland,True,9394
1513696337,3055e45df092c9bb4e93eb60d8c18ec8,MessageFormC,17,0,2.ext.train,NULL,month,June,June,January,False,9394
1513696337,3055e45df092c9bb4e93eb60d8c18ec8,MessageFormC,17,0,2.ext.train,NULL,day,16,16,1,False,9394
1513696337,3055e45df092c9bb4e93eb60d8c18ec8,MessageFormC,17,0,2.ext.train,NULL,time,8:00,8:00,1:00,False,9394
1513696337,3055e45df092c9bb4e93eb60d8c18ec8,MessageFormC,17,0,2.ext.train,NULL,ampm,AM*,AM,AM,True,9394
1513696337,3055e45df092c9bb4e93eb60d8c18ec8,MessageFormC,13,0,2.ext.Scenario8,NULL,who,Charger*,Charger group,Charger group,True,25386
1513696337,3055e45df092c9bb4e93eb60d8c18ec8,MessageFormC,13,0,2.ext.Scenario8,NULL,what,indoor-mall*,an indoor mall,an indoor mall,True,25386
1513696337,3055e45df092c9bb4e93eb60d8c18ec8,MessageFormC,13,0,2.ext.Scenario8,NULL,where,Salmonland*,Salmonland,Salmonland,True,25386
1513696337,3055e45df092c9bb4e93eb60d8c18ec8,MessageFormC,13,0,2.ext.Scenario8,NULL,month,December*,December,December,True,25386
1513696337,3055e45df092c9bb4e93eb60d8c18ec8,MessageFormC,13,0,2.ext.Scenario8,NULL,day,15*,15,15,True,25386
1513696337,3055e45df092c9bb4e93eb60d8c18ec8,MessageFormC,13,0,2.ext.Scenario8,NULL,time,10:00*,10:00,10:00,True,25386
1513696337,3055e45df092c9bb4e93eb60d8c18ec8,MessageFormC,13,0,2.ext.Scenario8,NULL,ampm,AM*,AM,AM,True,25386
# Columns below this comment are as follows:
# 1. Time results were received.
# 2. MD5 hash of participant's IP address.
# 3. Controller name.
# 4. Item number.
# 5. Element number.
# 6. Type.
# 7. Group.
# 8. Field name.
# 9. Field value.
1513696337,3055e45df092c9bb4e93eb60d8c18ec8,Form,24,0,2.ext.comments,NULL,comments,
1513696337,3055e45df092c9bb4e93eb60d8c18ec8,Form,24,0,2.ext.comments,NULL,_REACTION_TIME_,1684
1513696337,3055e45df092c9bb4e93eb60d8c18ec8,Form,26,0,end.b,NULL,mental,14
1513696337,3055e45df092c9bb4e93eb60d8c18ec8,Form,26,0,end.b,NULL,physical,14
1513696337,3055e45df092c9bb4e93eb60d8c18ec8,Form,26,0,end.b,NULL,temp,14
1513696337,3055e45df092c9bb4e93eb60d8c18ec8,Form,26,0,end.b,NULL,success,14
1513696337,3055e45df092c9bb4e93eb60d8c18ec8,Form,26,0,end.b,NULL,perf,14
1513696337,3055e45df092c9bb4e93eb60d8c18ec8,Form,26,0,end.b,NULL,stress,14
1513696337,3055e45df092c9bb4e93eb60d8c18ec8,Form,26,0,end.b,NULL,preference,14
1513696337,3055e45df092c9bb4e93eb60d8c18ec8,Form,26,0,end.b,NULL,_REACTION_TIME_,7162
#
# Results on Tuesday December 19 2017 15:14:15 UTC.
# USER AGENT: Mozilla/5.0 (Windows NT 6.1; WOW64; rv:52.0) Gecko/20100101 Firefox/52.0
# Design number was non-random = 73
#
# Columns below this comment are as follows:
# 1. Time results were received.
# 2. MD5 hash of participant's IP address.
# 3. Controller name.
# 4. Item number.
# 5. Element number.
# 6. Type.
# 7. Group.
# 8. Field name.
# 9. Field value.
1513696455,3055e45df092c9bb4e93eb60d8c18ec8,Form,0,0,inst,NULL,Language,Yes
1513696455,3055e45df092c9bb4e93eb60d8c18ec8,Form,0,0,inst,NULL,Age,30-49
1513696455,3055e45df092c9bb4e93eb60d8c18ec8,Form,0,0,inst,NULL,Gender,Female
1513696455,3055e45df092c9bb4e93eb60d8c18ec8,Form,0,0,inst,NULL,Education,Ed3
1513696455,3055e45df092c9bb4e93eb60d8c18ec8,Form,0,0,inst,NULL,_REACTION_TIME_,8364
# Columns below this comment are as follows:
# 1. Time results were received.
# 2. MD5 hash of participant's IP address.
# 3. Controller name.
# 4. Item number.
# 5. Element number.
# 6. Type.
# 7. Group.
# 8. Field name.
# 9. Field value.
# 10. Field text.
# 11. Field correct text.
# 12. Field correct.
# 13. _REACTION_TIME_.
1513696455,3055e45df092c9bb4e93eb60d8c18ec8,MessageFormC,21,0,1.orig.train,NULL,who,Tetrahedron,Tetrahedron group,Cube group,False,10008
1513696455,3055e45df092c9bb4e93eb60d8c18ec8,MessageFormC,21,0,1.orig.train,NULL,what,military-base,a military base,an airport,False,10008
1513696455,3055e45df092c9bb4e93eb60d8c18ec8,MessageFormC,21,0,1.orig.train,NULL,where,Gibbonland,Gibbonland,Bonoboland,False,10008
1513696455,3055e45df092c9bb4e93eb60d8c18ec8,MessageFormC,21,0,1.orig.train,NULL,month,September,September,January,False,10008
1513696455,3055e45df092c9bb4e93eb60d8c18ec8,MessageFormC,21,0,1.orig.train,NULL,day,13,13,1,False,10008
1513696455,3055e45df092c9bb4e93eb60d8c18ec8,MessageFormC,21,0,1.orig.train,NULL,time,9:00,9:00,1:00,False,10008
1513696455,3055e45df092c9bb4e93eb60d8c18ec8,MessageFormC,21,0,1.orig.train,NULL,ampm,PM,PM,AM,False,10008
1513696455,3055e45df092c9bb4e93eb60d8c18ec8,MessageFormC,15,0,1.orig.Scenario8,NULL,who,Raven,Raven group,Charger group,False,11194
1513696455,3055e45df092c9bb4e93eb60d8c18ec8,MessageFormC,15,0,1.orig.Scenario8,NULL,what,indoor-mall*,an indoor mall,an indoor mall,True,11194
1513696455,3055e45df092c9bb4e93eb60d8c18ec8,MessageFormC,15,0,1.orig.Scenario8,NULL,where,Sharkland,Sharkland,Salmonland,False,11194
1513696455,3055e45df092c9bb4e93eb60d8c18ec8,MessageFormC,15,0,1.orig.Scenario8,NULL,month,August,August,December,False,11194
1513696455,3055e45df092c9bb4e93eb60d8c18ec8,MessageFormC,15,0,1.orig.Scenario8,NULL,day,8,8,15,False,11194
1513696455,3055e45df092c9bb4e93eb60d8c18ec8,MessageFormC,15,0,1.orig.Scenario8,NULL,time,7:00,7:00,10:00,False,11194
1513696455,3055e45df092c9bb4e93eb60d8c18ec8,MessageFormC,15,0,1.orig.Scenario8,NULL,ampm,PM,PM,AM,False,11194
# Columns below this comment are as follows:
# 1. Time results were received.
# 2. MD5 hash of participant's IP address.
# 3. Controller name.
# 4. Item number.
# 5. Element number.
# 6. Type.
# 7. Group.
# 8. Field name.
# 9. Field value.
1513696455,3055e45df092c9bb4e93eb60d8c18ec8,Form,25,0,1.orig.comments,NULL,comments,
1513696455,3055e45df092c9bb4e93eb60d8c18ec8,Form,25,0,1.orig.comments,NULL,_REACTION_TIME_,1475
# Columns below this comment are as follows:
# 1. Time results were received.
# 2. MD5 hash of participant's IP address.
# 3. Controller name.
# 4. Item number.
# 5. Element number.
# 6. Type.
# 7. Group.
# 8. Field name.
# 9. Field value.
# 10. Field text.
# 11. Field correct text.
# 12. Field correct.
# 13. _REACTION_TIME_.
1513696455,3055e45df092c9bb4e93eb60d8c18ec8,MessageFormC,17,0,2.ext.train,NULL,who,Sphere,Sphere group,Cube group,False,9461
1513696455,3055e45df092c9bb4e93eb60d8c18ec8,MessageFormC,17,0,2.ext.train,NULL,what,military-base,a military base,an airport,False,9461
1513696455,3055e45df092c9bb4e93eb60d8c18ec8,MessageFormC,17,0,2.ext.train,NULL,where,Gibbonland,Gibbonland,Bonoboland,False,9461
1513696455,3055e45df092c9bb4e93eb60d8c18ec8,MessageFormC,17,0,2.ext.train,NULL,month,June,June,January,False,9461
1513696455,3055e45df092c9bb4e93eb60d8c18ec8,MessageFormC,17,0,2.ext.train,NULL,day,11,11,1,False,9461
1513696455,3055e45df092c9bb4e93eb60d8c18ec8,MessageFormC,17,0,2.ext.train,NULL,time,6:00,6:00,1:00,False,9461
1513696455,3055e45df092c9bb4e93eb60d8c18ec8,MessageFormC,17,0,2.ext.train,NULL,ampm,PM,PM,AM,False,9461
1513696455,3055e45df092c9bb4e93eb60d8c18ec8,MessageFormC,12,0,2.ext.Scenario1,NULL,who,Violet*,Violet group,Violet group,True,51484
1513696455,3055e45df092c9bb4e93eb60d8c18ec8,MessageFormC,12,0,2.ext.Scenario1,NULL,what,financial-institution*,a financial institution,a financial institution,True,51484
1513696455,3055e45df092c9bb4e93eb60d8c18ec8,MessageFormC,12,0,2.ext.Scenario1,NULL,where,Psiland*,Psiland,Psiland,True,51484
1513696455,3055e45df092c9bb4e93eb60d8c18ec8,MessageFormC,12,0,2.ext.Scenario1,NULL,month,April*,April,April,True,51484
1513696455,3055e45df092c9bb4e93eb60d8c18ec8,MessageFormC,12,0,2.ext.Scenario1,NULL,day,5*,5,5,True,51484
1513696455,3055e45df092c9bb4e93eb60d8c18ec8,MessageFormC,12,0,2.ext.Scenario1,NULL,time,11:00*,11:00,11:00,True,51484
1513696455,3055e45df092c9bb4e93eb60d8c18ec8,MessageFormC,12,0,2.ext.Scenario1,NULL,ampm,AM*,AM,AM,True,51484
# Columns below this comment are as follows:
# 1. Time results were received.
# 2. MD5 hash of participant's IP address.
# 3. Controller name.
# 4. Item number.
# 5. Element number.
# 6. Type.
# 7. Group.
# 8. Field name.
# 9. Field value.
1513696455,3055e45df092c9bb4e93eb60d8c18ec8,Form,24,0,2.ext.comments,NULL,comments,
1513696455,3055e45df092c9bb4e93eb60d8c18ec8,Form,24,0,2.ext.comments,NULL,_REACTION_TIME_,996
1513696455,3055e45df092c9bb4e93eb60d8c18ec8,Form,26,0,end.b,NULL,mental,10
1513696455,3055e45df092c9bb4e93eb60d8c18ec8,Form,26,0,end.b,NULL,physical,10
1513696455,3055e45df092c9bb4e93eb60d8c18ec8,Form,26,0,end.b,NULL,temp,10
1513696455,3055e45df092c9bb4e93eb60d8c18ec8,Form,26,0,end.b,NULL,success,10
1513696455,3055e45df092c9bb4e93eb60d8c18ec8,Form,26,0,end.b,NULL,perf,10
1513696455,3055e45df092c9bb4e93eb60d8c18ec8,Form,26,0,end.b,NULL,stress,10
1513696455,3055e45df092c9bb4e93eb60d8c18ec8,Form,26,0,end.b,NULL,preference,10
1513696455,3055e45df092c9bb4e93eb60d8c18ec8,Form,26,0,end.b,NULL,_REACTION_TIME_,7097
#
# Results on Tuesday December 19 2017 15:43:27 UTC.
# USER AGENT: Mozilla/5.0 (Windows NT 6.1; WOW64; rv:52.0) Gecko/20100101 Firefox/52.0
# Design number was non-random = 70
#
# Columns below this comment are as follows:
# 1. Time results were received.
# 2. MD5 hash of participant's IP address.
# 3. Controller name.
# 4. Item number.
# 5. Element number.
# 6. Type.
# 7. Group.
# 8. Field name.
# 9. Field value.
1513698208,3055e45df092c9bb4e93eb60d8c18ec8,Form,0,0,inst,NULL,Language,Yes
1513698208,3055e45df092c9bb4e93eb60d8c18ec8,Form,0,0,inst,NULL,Age,30-49
1513698208,3055e45df092c9bb4e93eb60d8c18ec8,Form,0,0,inst,NULL,Gender,Female
1513698208,3055e45df092c9bb4e93eb60d8c18ec8,Form,0,0,inst,NULL,Education,Ed3
1513698208,3055e45df092c9bb4e93eb60d8c18ec8,Form,0,0,inst,NULL,_REACTION_TIME_,7935
# Columns below this comment are as follows:
# 1. Time results were received.
# 2. MD5 hash of participant's IP address.
# 3. Controller name.
# 4. Item number.
# 5. Element number.
# 6. Type.
# 7. Group.
# 8. Field name.
# 9. Field value.
# 10. Field text.
# 11. Field correct text.
# 12. Field correct.
# 13. _REACTION_TIME_.
1513698208,3055e45df092c9bb4e93eb60d8c18ec8,MessageFormC,21,0,1.orig.train,NULL,who,Cube*,Cube group,Cube group,True,63317
1513698208,3055e45df092c9bb4e93eb60d8c18ec8,MessageFormC,21,0,1.orig.train,NULL,what,military-base,a military base,an airport,False,63317
1513698208,3055e45df092c9bb4e93eb60d8c18ec8,MessageFormC,21,0,1.orig.train,NULL,where,Gibbonland,Gibbonland,Bonoboland,False,63317
1513698208,3055e45df092c9bb4e93eb60d8c18ec8,MessageFormC,21,0,1.orig.train,NULL,month,May,May,January,False,63317
1513698208,3055e45df092c9bb4e93eb60d8c18ec8,MessageFormC,21,0,1.orig.train,NULL,day,8,8,1,False,63317
1513698208,3055e45df092c9bb4e93eb60d8c18ec8,MessageFormC,21,0,1.orig.train,NULL,time,7:00,7:00,1:00,False,63317
1513698208,3055e45df092c9bb4e93eb60d8c18ec8,MessageFormC,21,0,1.orig.train,NULL,ampm,PM,PM,AM,False,63317
1513698208,3055e45df092c9bb4e93eb60d8c18ec8,MessageFormC,15,0,1.orig.Scenario8,NULL,who,Titan,Titan group,Charger group,False,13530
1513698208,3055e45df092c9bb4e93eb60d8c18ec8,MessageFormC,15,0,1.orig.Scenario8,NULL,what,indoor-mall*,an indoor mall,an indoor mall,True,13530
1513698208,3055e45df092c9bb4e93eb60d8c18ec8,MessageFormC,15,0,1.orig.Scenario8,NULL,where,Perchland,Perchland,Salmonland,False,13530
1513698208,3055e45df092c9bb4e93eb60d8c18ec8,MessageFormC,15,0,1.orig.Scenario8,NULL,month,September,September,December,False,13530
1513698208,3055e45df092c9bb4e93eb60d8c18ec8,MessageFormC,15,0,1.orig.Scenario8,NULL,day,31,31,15,False,13530
1513698208,3055e45df092c9bb4e93eb60d8c18ec8,MessageFormC,15,0,1.orig.Scenario8,NULL,time,2:00,2:00,10:00,False,13530
1513698208,3055e45df092c9bb4e93eb60d8c18ec8,MessageFormC,15,0,1.orig.Scenario8,NULL,ampm,PM,PM,AM,False,13530
# Columns below this comment are as follows:
# 1. Time results were received.
# 2. MD5 hash of participant's IP address.
# 3. Controller name.
# 4. Item number.
# 5. Element number.
# 6. Type.
# 7. Group.
# 8. Field name.
# 9. Field value.
1513698208,3055e45df092c9bb4e93eb60d8c18ec8,Form,25,0,1.orig.comments,NULL,comments,
1513698208,3055e45df092c9bb4e93eb60d8c18ec8,Form,25,0,1.orig.comments,NULL,_REACTION_TIME_,1835
# Columns below this comment are as follows:
# 1. Time results were received.
# 2. MD5 hash of participant's IP address.
# 3. Controller name.
# 4. Item number.
# 5. Element number.
# 6. Type.
# 7. Group.
# 8. Field name.
# 9. Field value.
# 10. Field text.
# 11. Field correct text.
# 12. Field correct.
# 13. _REACTION_TIME_.
1513698208,3055e45df092c9bb4e93eb60d8c18ec8,MessageFormC,17,0,2.ext.train,NULL,who,Sphere,Sphere group,Cube group,False,9256
1513698208,3055e45df092c9bb4e93eb60d8c18ec8,MessageFormC,17,0,2.ext.train,NULL,what,outdoor-mall,a pumping station,an airport,False,9256
1513698208,3055e45df092c9bb4e93eb60d8c18ec8,MessageFormC,17,0,2.ext.train,NULL,where,Bonoboland*,Bonoboland,Bonoboland,True,9256
1513698208,3055e45df092c9bb4e93eb60d8c18ec8,MessageFormC,17,0,2.ext.train,NULL,month,July,July,January,False,9256
1513698208,3055e45df092c9bb4e93eb60d8c18ec8,MessageFormC,17,0,2.ext.train,NULL,day,16,16,1,False,9256
1513698208,3055e45df092c9bb4e93eb60d8c18ec8,MessageFormC,17,0,2.ext.train,NULL,time,9:00,9:00,1:00,False,9256
1513698208,3055e45df092c9bb4e93eb60d8c18ec8,MessageFormC,17,0,2.ext.train,NULL,ampm,AM*,AM,AM,True,9256
1513698208,3055e45df092c9bb4e93eb60d8c18ec8,MessageFormC,12,0,2.ext.Scenario1,NULL,who,Violet*,Violet group,Violet group,True,39195
1513698208,3055e45df092c9bb4e93eb60d8c18ec8,MessageFormC,12,0,2.ext.Scenario1,NULL,what,financial-institution*,a financial institution,a financial institution,True,39195
1513698208,3055e45df092c9bb4e93eb60d8c18ec8,MessageFormC,12,0,2.ext.Scenario1,NULL,where,Psiland*,Psiland,Psiland,True,39195
1513698208,3055e45df092c9bb4e93eb60d8c18ec8,MessageFormC,12,0,2.ext.Scenario1,NULL,month,April*,April,April,True,39195
1513698208,3055e45df092c9bb4e93eb60d8c18ec8,MessageFormC,12,0,2.ext.Scenario1,NULL,day,5*,5,5,True,39195
1513698208,3055e45df092c9bb4e93eb60d8c18ec8,MessageFormC,12,0,2.ext.Scenario1,NULL,time,11:00*,11:00,11:00,True,39195
1513698208,3055e45df092c9bb4e93eb60d8c18ec8,MessageFormC,12,0,2.ext.Scenario1,NULL,ampm,AM*,AM,AM,True,39195
# Columns below this comment are as follows:
# 1. Time results were received.
# 2. MD5 hash of participant's IP address.
# 3. Controller name.
# 4. Item number.
# 5. Element number.
# 6. Type.
# 7. Group.
# 8. Field name.
# 9. Field value.
1513698208,3055e45df092c9bb4e93eb60d8c18ec8,Form,24,0,2.ext.comments,NULL,comments,
1513698208,3055e45df092c9bb4e93eb60d8c18ec8,Form,24,0,2.ext.comments,NULL,_REACTION_TIME_,1334
1513698208,3055e45df092c9bb4e93eb60d8c18ec8,Form,26,0,end.b,NULL,mental,17
1513698208,3055e45df092c9bb4e93eb60d8c18ec8,Form,26,0,end.b,NULL,physical,17
1513698208,3055e45df092c9bb4e93eb60d8c18ec8,Form,26,0,end.b,NULL,temp,17
1513698208,3055e45df092c9bb4e93eb60d8c18ec8,Form,26,0,end.b,NULL,success,17
1513698208,3055e45df092c9bb4e93eb60d8c18ec8,Form,26,0,end.b,NULL,perf,17
1513698208,3055e45df092c9bb4e93eb60d8c18ec8,Form,26,0,end.b,NULL,stress,17
1513698208,3055e45df092c9bb4e93eb60d8c18ec8,Form,26,0,end.b,NULL,preference,17
1513698208,3055e45df092c9bb4e93eb60d8c18ec8,Form,26,0,end.b,NULL,_REACTION_TIME_,9099
#
# Results on Tuesday December 19 2017 15:48:15 UTC.
# USER AGENT: Mozilla/5.0 (Windows NT 6.1; WOW64; rv:52.0) Gecko/20100101 Firefox/52.0
# Design number was non-random = 70
#
# Columns below this comment are as follows:
# 1. Time results were received.
# 2. MD5 hash of participant's IP address.
# 3. Controller name.
# 4. Item number.
# 5. Element number.
# 6. Type.
# 7. Group.
# 8. Field name.
# 9. Field value.
1513698496,3055e45df092c9bb4e93eb60d8c18ec8,Form,0,0,inst,NULL,Language,Yes
1513698496,3055e45df092c9bb4e93eb60d8c18ec8,Form,0,0,inst,NULL,Age,30-49
1513698496,3055e45df092c9bb4e93eb60d8c18ec8,Form,0,0,inst,NULL,Gender,Female
1513698496,3055e45df092c9bb4e93eb60d8c18ec8,Form,0,0,inst,NULL,Education,Ed3
1513698496,3055e45df092c9bb4e93eb60d8c18ec8,Form,0,0,inst,NULL,_REACTION_TIME_,5832
# Columns below this comment are as follows:
# 1. Time results were received.
# 2. MD5 hash of participant's IP address.
# 3. Controller name.
# 4. Item number.
# 5. Element number.
# 6. Type.
# 7. Group.
# 8. Field name.
# 9. Field value.
# 10. Field text.
# 11. Field correct text.
# 12. Field correct.
# 13. _REACTION_TIME_.
1513698496,3055e45df092c9bb4e93eb60d8c18ec8,MessageFormC,21,0,1.orig.train,NULL,who,Tetrahedron,Tetrahedron group,Cube group,False,81852
1513698496,3055e45df092c9bb4e93eb60d8c18ec8,MessageFormC,21,0,1.orig.train,NULL,what,military-base,a military base,an airport,False,81852
1513698496,3055e45df092c9bb4e93eb60d8c18ec8,MessageFormC,21,0,1.orig.train,NULL,where,Lemurland,Lemurland,Bonoboland,False,81852
1513698496,3055e45df092c9bb4e93eb60d8c18ec8,MessageFormC,21,0,1.orig.train,NULL,month,February,February,January,False,81852
1513698496,3055e45df092c9bb4e93eb60d8c18ec8,MessageFormC,21,0,1.orig.train,NULL,day,6,6,1,False,81852
1513698496,3055e45df092c9bb4e93eb60d8c18ec8,MessageFormC,21,0,1.orig.train,NULL,time,6:00,6:00,1:00,False,81852
1513698496,3055e45df092c9bb4e93eb60d8c18ec8,MessageFormC,21,0,1.orig.train,NULL,ampm,AM*,AM,AM,True,81852
1513698496,3055e45df092c9bb4e93eb60d8c18ec8,MessageFormC,14,0,1.orig.Scenario7,NULL,who,Octagon,Octagon group,Triangle group,False,13095
1513698496,3055e45df092c9bb4e93eb60d8c18ec8,MessageFormC,14,0,1.orig.Scenario7,NULL,what,power-plant,a power plant,a cruise terminal,False,13095
1513698496,3055e45df092c9bb4e93eb60d8c18ec8,MessageFormC,14,0,1.orig.Scenario7,NULL,where,Flyland,Flyland,Tickland,False,13095
1513698496,3055e45df092c9bb4e93eb60d8c18ec8,MessageFormC,14,0,1.orig.Scenario7,NULL,month,July,July,September,False,13095
1513698496,3055e45df092c9bb4e93eb60d8c18ec8,MessageFormC,14,0,1.orig.Scenario7,NULL,day,10,10,1,False,13095
1513698496,3055e45df092c9bb4e93eb60d8c18ec8,MessageFormC,14,0,1.orig.Scenario7,NULL,time,7:00,7:00,10:00,False,13095
1513698496,3055e45df092c9bb4e93eb60d8c18ec8,MessageFormC,14,0,1.orig.Scenario7,NULL,ampm,AM,AM,PM,False,13095
# Columns below this comment are as follows:
# 1. Time results were received.
# 2. MD5 hash of participant's IP address.
# 3. Controller name.
# 4. Item number.
# 5. Element number.
# 6. Type.
# 7. Group.
# 8. Field name.
# 9. Field value.
1513698496,3055e45df092c9bb4e93eb60d8c18ec8,Form,25,0,1.orig.comments,NULL,comments,
1513698496,3055e45df092c9bb4e93eb60d8c18ec8,Form,25,0,1.orig.comments,NULL,_REACTION_TIME_,935
# Columns below this comment are as follows:
# 1. Time results were received.
# 2. MD5 hash of participant's IP address.
# 3. Controller name.
# 4. Item number.
# 5. Element number.
# 6. Type.
# 7. Group.
# 8. Field name.
# 9. Field value.
# 10. Field text.
# 11. Field correct text.
# 12. Field correct.
# 13. _REACTION_TIME_.
1513698496,3055e45df092c9bb4e93eb60d8c18ec8,MessageFormC,17,0,2.ext.train,NULL,who,Tetrahedron,Tetrahedron group,Cube group,False,13449
1513698496,3055e45df092c9bb4e93eb60d8c18ec8,MessageFormC,17,0,2.ext.train,NULL,what,military-base,a military base,an airport,False,13449
1513698496,3055e45df092c9bb4e93eb60d8c18ec8,MessageFormC,17,0,2.ext.train,NULL,where,Gibbonland,Gibbonland,Bonoboland,False,13449
1513698496,3055e45df092c9bb4e93eb60d8c18ec8,MessageFormC,17,0,2.ext.train,NULL,month,September,September,January,False,13449
1513698496,3055e45df092c9bb4e93eb60d8c18ec8,MessageFormC,17,0,2.ext.train,NULL,day,17,17,1,False,13449
1513698496,3055e45df092c9bb4e93eb60d8c18ec8,MessageFormC,17,0,2.ext.train,NULL,time,3:00,3:00,1:00,False,13449
1513698496,3055e45df092c9bb4e93eb60d8c18ec8,MessageFormC,17,0,2.ext.train,NULL,ampm,PM,PM,AM,False,13449
1513698496,3055e45df092c9bb4e93eb60d8c18ec8,MessageFormC,12,0,2.ext.Scenario1,NULL,who,Violet*,Violet group,Violet group,True,33951
1513698496,3055e45df092c9bb4e93eb60d8c18ec8,MessageFormC,12,0,2.ext.Scenario1,NULL,what,financial-institution*,a financial institution,a financial institution,True,33951
1513698496,3055e45df092c9bb4e93eb60d8c18ec8,MessageFormC,12,0,2.ext.Scenario1,NULL,where,Psiland*,Psiland,Psiland,True,33951
1513698496,3055e45df092c9bb4e93eb60d8c18ec8,MessageFormC,12,0,2.ext.Scenario1,NULL,month,April*,April,April,True,33951
1513698496,3055e45df092c9bb4e93eb60d8c18ec8,MessageFormC,12,0,2.ext.Scenario1,NULL,day,5*,5,5,True,33951
1513698496,3055e45df092c9bb4e93eb60d8c18ec8,MessageFormC,12,0,2.ext.Scenario1,NULL,time,11:00*,11:00,11:00,True,33951
1513698496,3055e45df092c9bb4e93eb60d8c18ec8,MessageFormC,12,0,2.ext.Scenario1,NULL,ampm,AM*,AM,AM,True,33951
# Columns below this comment are as follows:
# 1. Time results were received.
# 2. MD5 hash of participant's IP address.
# 3. Controller name.
# 4. Item number.
# 5. Element number.
# 6. Type.
# 7. Group.
# 8. Field name.
# 9. Field value.
1513698496,3055e45df092c9bb4e93eb60d8c18ec8,Form,24,0,2.ext.comments,NULL,comments,
1513698496,3055e45df092c9bb4e93eb60d8c18ec8,Form,24,0,2.ext.comments,NULL,_REACTION_TIME_,863
1513698496,3055e45df092c9bb4e93eb60d8c18ec8,Form,26,0,end.a,NULL,mental,7
1513698496,3055e45df092c9bb4e93eb60d8c18ec8,Form,26,0,end.a,NULL,physical,7
1513698496,3055e45df092c9bb4e93eb60d8c18ec8,Form,26,0,end.a,NULL,temp,7
1513698496,3055e45df092c9bb4e93eb60d8c18ec8,Form,26,0,end.a,NULL,success,7
1513698496,3055e45df092c9bb4e93eb60d8c18ec8,Form,26,0,end.a,NULL,perf,7
1513698496,3055e45df092c9bb4e93eb60d8c18ec8,Form,26,0,end.a,NULL,stress,7
1513698496,3055e45df092c9bb4e93eb60d8c18ec8,Form,26,0,end.a,NULL,preference,7
1513698496,3055e45df092c9bb4e93eb60d8c18ec8,Form,26,0,end.a,NULL,_REACTION_TIME_,7527
#
# Results on Tuesday December 19 2017 15:51:11 UTC.
# USER AGENT: Mozilla/5.0 (Windows NT 6.1; WOW64; rv:52.0) Gecko/20100101 Firefox/52.0
# Design number was non-random = 70
#
# Columns below this comment are as follows:
# 1. Time results were received.
# 2. MD5 hash of participant's IP address.
# 3. Controller name.
# 4. Item number.
# 5. Element number.
# 6. Type.
# 7. Group.
# 8. Field name.
# 9. Field value.
1513698671,3055e45df092c9bb4e93eb60d8c18ec8,Form,0,0,inst,NULL,Language,Yes
1513698671,3055e45df092c9bb4e93eb60d8c18ec8,Form,0,0,inst,NULL,Age,30-49
1513698671,3055e45df092c9bb4e93eb60d8c18ec8,Form,0,0,inst,NULL,Gender,Female
1513698671,3055e45df092c9bb4e93eb60d8c18ec8,Form,0,0,inst,NULL,Education,Ed1
1513698671,3055e45df092c9bb4e93eb60d8c18ec8,Form,0,0,inst,NULL,_REACTION_TIME_,13492
# Columns below this comment are as follows:
# 1. Time results were received.
# 2. MD5 hash of participant's IP address.
# 3. Controller name.
# 4. Item number.
# 5. Element number.
# 6. Type.
# 7. Group.
# 8. Field name.
# 9. Field value.
# 10. Field text.
# 11. Field correct text.
# 12. Field correct.
# 13. _REACTION_TIME_.
1513698671,3055e45df092c9bb4e93eb60d8c18ec8,MessageFormC,17,0,1.ext.train,NULL,who,Cube*,Cube group,Cube group,True,13502
1513698671,3055e45df092c9bb4e93eb60d8c18ec8,MessageFormC,17,0,1.ext.train,NULL,what,military-base,a military base,an airport,False,13502
1513698671,3055e45df092c9bb4e93eb60d8c18ec8,MessageFormC,17,0,1.ext.train,NULL,where,Gibbonland,Gibbonland,Bonoboland,False,13502
1513698671,3055e45df092c9bb4e93eb60d8c18ec8,MessageFormC,17,0,1.ext.train,NULL,month,November,November,January,False,13502
1513698671,3055e45df092c9bb4e93eb60d8c18ec8,MessageFormC,17,0,1.ext.train,NULL,day,29,29,1,False,13502
1513698671,3055e45df092c9bb4e93eb60d8c18ec8,MessageFormC,17,0,1.ext.train,NULL,time,9:00,9:00,1:00,False,13502
1513698671,3055e45df092c9bb4e93eb60d8c18ec8,MessageFormC,17,0,1.ext.train,NULL,ampm,AM*,AM,AM,True,13502
1513698671,3055e45df092c9bb4e93eb60d8c18ec8,MessageFormC,12,0,1.ext.Scenario1,NULL,who,Violet*,Violet group,Violet group,True,27696
1513698671,3055e45df092c9bb4e93eb60d8c18ec8,MessageFormC,12,0,1.ext.Scenario1,NULL,what,financial-institution*,a financial institution,a financial institution,True,27696
1513698671,3055e45df092c9bb4e93eb60d8c18ec8,MessageFormC,12,0,1.ext.Scenario1,NULL,where,Psiland*,Psiland,Psiland,True,27696
1513698671,3055e45df092c9bb4e93eb60d8c18ec8,MessageFormC,12,0,1.ext.Scenario1,NULL,month,April*,April,April,True,27696
1513698671,3055e45df092c9bb4e93eb60d8c18ec8,MessageFormC,12,0,1.ext.Scenario1,NULL,day,5*,5,5,True,27696
1513698671,3055e45df092c9bb4e93eb60d8c18ec8,MessageFormC,12,0,1.ext.Scenario1,NULL,time,11:00*,11:00,11:00,True,27696
1513698671,3055e45df092c9bb4e93eb60d8c18ec8,MessageFormC,12,0,1.ext.Scenario1,NULL,ampm,AM*,AM,AM,True,27696
# Columns below this comment are as follows:
# 1. Time results were received.
# 2. MD5 hash of participant's IP address.
# 3. Controller name.
# 4. Item number.
# 5. Element number.
# 6. Type.
# 7. Group.
# 8. Field name.
# 9. Field value.
1513698671,3055e45df092c9bb4e93eb60d8c18ec8,Form,24,0,1.ext.comments,NULL,comments,
1513698671,3055e45df092c9bb4e93eb60d8c18ec8,Form,24,0,1.ext.comments,NULL,_REACTION_TIME_,878
# Columns below this comment are as follows:
# 1. Time results were received.
# 2. MD5 hash of participant's IP address.
# 3. Controller name.
# 4. Item number.
# 5. Element number.
# 6. Type.
# 7. Group.
# 8. Field name.
# 9. Field value.
# 10. Field text.
# 11. Field correct text.
# 12. Field correct.
# 13. _REACTION_TIME_.
1513698671,3055e45df092c9bb4e93eb60d8c18ec8,MessageFormC,21,0,2.orig.train,NULL,who,Tetrahedron,Tetrahedron group,Cube group,False,8959
1513698671,3055e45df092c9bb4e93eb60d8c18ec8,MessageFormC,21,0,2.orig.train,NULL,what,military-base,a military base,an airport,False,8959
1513698671,3055e45df092c9bb4e93eb60d8c18ec8,MessageFormC,21,0,2.orig.train,NULL,where,Gibbonland,Gibbonland,Bonoboland,False,8959
1513698671,3055e45df092c9bb4e93eb60d8c18ec8,MessageFormC,21,0,2.orig.train,NULL,month,July,July,January,False,8959
1513698671,3055e45df092c9bb4e93eb60d8c18ec8,MessageFormC,21,0,2.orig.train,NULL,day,13,13,1,False,8959
1513698671,3055e45df092c9bb4e93eb60d8c18ec8,MessageFormC,21,0,2.orig.train,NULL,time,8:00,8:00,1:00,False,8959
1513698671,3055e45df092c9bb4e93eb60d8c18ec8,MessageFormC,21,0,2.orig.train,NULL,ampm,PM,PM,AM,False,8959
1513698671,3055e45df092c9bb4e93eb60d8c18ec8,MessageFormC,15,0,2.orig.Scenario8,NULL,who,Steeler,Steeler group,Charger group,False,12277
1513698671,3055e45df092c9bb4e93eb60d8c18ec8,MessageFormC,15,0,2.orig.Scenario8,NULL,what,stock-market,a stock market,an indoor mall,False,12277
1513698671,3055e45df092c9bb4e93eb60d8c18ec8,MessageFormC,15,0,2.orig.Scenario8,NULL,where,Salmonland*,Salmonland,Salmonland,True,12277
1513698671,3055e45df092c9bb4e93eb60d8c18ec8,MessageFormC,15,0,2.orig.Scenario8,NULL,month,August,August,December,False,12277
1513698671,3055e45df092c9bb4e93eb60d8c18ec8,MessageFormC,15,0,2.orig.Scenario8,NULL,day,14,14,15,False,12277
1513698671,3055e45df092c9bb4e93eb60d8c18ec8,MessageFormC,15,0,2.orig.Scenario8,NULL,time,8:00,8:00,10:00,False,12277
1513698671,3055e45df092c9bb4e93eb60d8c18ec8,MessageFormC,15,0,2.orig.Scenario8,NULL,ampm,PM,PM,AM,False,12277
# Columns below this comment are as follows:
# 1. Time results were received.
# 2. MD5 hash of participant's IP address.
# 3. Controller name.
# 4. Item number.
# 5. Element number.
# 6. Type.
# 7. Group.
# 8. Field name.
# 9. Field value.
1513698671,3055e45df092c9bb4e93eb60d8c18ec8,Form,25,0,2.orig.comments,NULL,comments,
1513698671,3055e45df092c9bb4e93eb60d8c18ec8,Form,25,0,2.orig.comments,NULL,_REACTION_TIME_,941
1513698671,3055e45df092c9bb4e93eb60d8c18ec8,Form,26,0,end.b,NULL,mental,7
1513698671,3055e45df092c9bb4e93eb60d8c18ec8,Form,26,0,end.b,NULL,physical,7
1513698671,3055e45df092c9bb4e93eb60d8c18ec8,Form,26,0,end.b,NULL,temp,7
1513698671,3055e45df092c9bb4e93eb60d8c18ec8,Form,26,0,end.b,NULL,success,7
1513698671,3055e45df092c9bb4e93eb60d8c18ec8,Form,26,0,end.b,NULL,perf,7
1513698671,3055e45df092c9bb4e93eb60d8c18ec8,Form,26,0,end.b,NULL,stress,7
1513698671,3055e45df092c9bb4e93eb60d8c18ec8,Form,26,0,end.b,NULL,preference,7
1513698671,3055e45df092c9bb4e93eb60d8c18ec8,Form,26,0,end.b,NULL,_REACTION_TIME_,8133
#
# Results on Tuesday December 19 2017 15:53:14 UTC.
# USER AGENT: Mozilla/5.0 (Windows NT 6.1; WOW64; rv:52.0) Gecko/20100101 Firefox/52.0
# Design number was non-random = 71
#
# Columns below this comment are as follows:
# 1. Time results were received.
# 2. MD5 hash of participant's IP address.
# 3. Controller name.
# 4. Item number.
# 5. Element number.
# 6. Type.
# 7. Group.
# 8. Field name.
# 9. Field value.
1513698795,3055e45df092c9bb4e93eb60d8c18ec8,Form,0,0,inst,NULL,Language,Yes
1513698795,3055e45df092c9bb4e93eb60d8c18ec8,Form,0,0,inst,NULL,Age,30-49
1513698795,3055e45df092c9bb4e93eb60d8c18ec8,Form,0,0,inst,NULL,Gender,Female
1513698795,3055e45df092c9bb4e93eb60d8c18ec8,Form,0,0,inst,NULL,Education,Ed3
1513698795,3055e45df092c9bb4e93eb60d8c18ec8,Form,0,0,inst,NULL,_REACTION_TIME_,13883
# Columns below this comment are as follows:
# 1. Time results were received.
# 2. MD5 hash of participant's IP address.
# 3. Controller name.
# 4. Item number.
# 5. Element number.
# 6. Type.
# 7. Group.
# 8. Field name.
# 9. Field value.
# 10. Field text.
# 11. Field correct text.
# 12. Field correct.
# 13. _REACTION_TIME_.
1513698795,3055e45df092c9bb4e93eb60d8c18ec8,MessageFormC,17,0,1.ext.train,NULL,who,Tetrahedron,Tetrahedron group,Cube group,False,11560
1513698795,3055e45df092c9bb4e93eb60d8c18ec8,MessageFormC,17,0,1.ext.train,NULL,what,outdoor-mall,a pumping station,an airport,False,11560
1513698795,3055e45df092c9bb4e93eb60d8c18ec8,MessageFormC,17,0,1.ext.train,NULL,where,Gibbonland,Gibbonland,Bonoboland,False,11560
1513698795,3055e45df092c9bb4e93eb60d8c18ec8,MessageFormC,17,0,1.ext.train,NULL,month,October,October,January,False,11560
1513698795,3055e45df092c9bb4e93eb60d8c18ec8,MessageFormC,17,0,1.ext.train,NULL,day,12,12,1,False,11560
1513698795,3055e45df092c9bb4e93eb60d8c18ec8,MessageFormC,17,0,1.ext.train,NULL,time,10:00,10:00,1:00,False,11560
1513698795,3055e45df092c9bb4e93eb60d8c18ec8,MessageFormC,17,0,1.ext.train,NULL,ampm,AM*,AM,AM,True,11560
1513698795,3055e45df092c9bb4e93eb60d8c18ec8,MessageFormC,13,0,1.ext.Scenario4,NULL,who,Silver*,Silver group,Silver group,True,40858
1513698795,3055e45df092c9bb4e93eb60d8c18ec8,MessageFormC,13,0,1.ext.Scenario4,NULL,what,secular-school*,a secular school,a secular school,True,40858
1513698795,3055e45df092c9bb4e93eb60d8c18ec8,MessageFormC,13,0,1.ext.Scenario4,NULL,where,Omicronland*,Omicronland,Omicronland,True,40858
1513698795,3055e45df092c9bb4e93eb60d8c18ec8,MessageFormC,13,0,1.ext.Scenario4,NULL,month,January*,January,January,True,40858
1513698795,3055e45df092c9bb4e93eb60d8c18ec8,MessageFormC,13,0,1.ext.Scenario4,NULL,day,1*,1,1,True,40858
1513698795,3055e45df092c9bb4e93eb60d8c18ec8,MessageFormC,13,0,1.ext.Scenario4,NULL,time,9:00*,9:00,9:00,True,40858
1513698795,3055e45df092c9bb4e93eb60d8c18ec8,MessageFormC,13,0,1.ext.Scenario4,NULL,ampm,AM*,AM,AM,True,40858
# Columns below this comment are as follows:
# 1. Time results were received.
# 2. MD5 hash of participant's IP address.
# 3. Controller name.
# 4. Item number.
# 5. Element number.
# 6. Type.
# 7. Group.
# 8. Field name.
# 9. Field value.
1513698795,3055e45df092c9bb4e93eb60d8c18ec8,Form,24,0,1.ext.comments,NULL,comments,
1513698795,3055e45df092c9bb4e93eb60d8c18ec8,Form,24,0,1.ext.comments,NULL,_REACTION_TIME_,1107
# Columns below this comment are as follows:
# 1. Time results were received.
# 2. MD5 hash of participant's IP address.
# 3. Controller name.
# 4. Item number.
# 5. Element number.
# 6. Type.
# 7. Group.
# 8. Field name.
# 9. Field value.
# 10. Field text.
# 11. Field correct text.
# 12. Field correct.
# 13. _REACTION_TIME_.
1513698795,3055e45df092c9bb4e93eb60d8c18ec8,MessageFormC,21,0,2.orig.train,NULL,who,Tetrahedron,Tetrahedron group,Cube group,False,7952
1513698795,3055e45df092c9bb4e93eb60d8c18ec8,MessageFormC,21,0,2.orig.train,NULL,what,military-base,a military base,an airport,False,7952
1513698795,3055e45df092c9bb4e93eb60d8c18ec8,MessageFormC,21,0,2.orig.train,NULL,where,Gibbonland,Gibbonland,Bonoboland,False,7952
1513698795,3055e45df092c9bb4e93eb60d8c18ec8,MessageFormC,21,0,2.orig.train,NULL,month,May,May,January,False,7952
1513698795,3055e45df092c9bb4e93eb60d8c18ec8,MessageFormC,21,0,2.orig.train,NULL,day,10,10,1,False,7952
1513698795,3055e45df092c9bb4e93eb60d8c18ec8,MessageFormC,21,0,2.orig.train,NULL,time,5:00,5:00,1:00,False,7952
1513698795,3055e45df092c9bb4e93eb60d8c18ec8,MessageFormC,21,0,2.orig.train,NULL,ampm,PM,PM,AM,False,7952
1513698795,3055e45df092c9bb4e93eb60d8c18ec8,MessageFormC,14,0,2.orig.Scenario7,NULL,who,Octagon,Octagon group,Triangle group,False,11495
1513698795,3055e45df092c9bb4e93eb60d8c18ec8,MessageFormC,14,0,2.orig.Scenario7,NULL,what,power-plant,a power plant,a cruise terminal,False,11495
1513698795,3055e45df092c9bb4e93eb60d8c18ec8,MessageFormC,14,0,2.orig.Scenario7,NULL,where,Flyland,Flyland,Tickland,False,11495
1513698795,3055e45df092c9bb4e93eb60d8c18ec8,MessageFormC,14,0,2.orig.Scenario7,NULL,month,July,July,September,False,11495
1513698795,3055e45df092c9bb4e93eb60d8c18ec8,MessageFormC,14,0,2.orig.Scenario7,NULL,day,19,19,1,False,11495
1513698795,3055e45df092c9bb4e93eb60d8c18ec8,MessageFormC,14,0,2.orig.Scenario7,NULL,time,8:00,8:00,10:00,False,11495
1513698795,3055e45df092c9bb4e93eb60d8c18ec8,MessageFormC,14,0,2.orig.Scenario7,NULL,ampm,AM,AM,PM,False,11495
# Columns below this comment are as follows:
# 1. Time results were received.
# 2. MD5 hash of participant's IP address.
# 3. Controller name.
# 4. Item number.
# 5. Element number.
# 6. Type.
# 7. Group.
# 8. Field name.
# 9. Field value.
1513698795,3055e45df092c9bb4e93eb60d8c18ec8,Form,25,0,2.orig.comments,NULL,comments,
1513698795,3055e45df092c9bb4e93eb60d8c18ec8,Form,25,0,2.orig.comments,NULL,_REACTION_TIME_,1392
1513698795,3055e45df092c9bb4e93eb60d8c18ec8,Form,26,0,end.b,NULL,mental,4
1513698795,3055e45df092c9bb4e93eb60d8c18ec8,Form,26,0,end.b,NULL,physical,4
1513698795,3055e45df092c9bb4e93eb60d8c18ec8,Form,26,0,end.b,NULL,temp,4
1513698795,3055e45df092c9bb4e93eb60d8c18ec8,Form,26,0,end.b,NULL,success,4
1513698795,3055e45df092c9bb4e93eb60d8c18ec8,Form,26,0,end.b,NULL,perf,4
1513698795,3055e45df092c9bb4e93eb60d8c18ec8,Form,26,0,end.b,NULL,stress,4
1513698795,3055e45df092c9bb4e93eb60d8c18ec8,Form,26,0,end.b,NULL,preference,4
1513698795,3055e45df092c9bb4e93eb60d8c18ec8,Form,26,0,end.b,NULL,_REACTION_TIME_,7842
#
# Results on Tuesday December 19 2017 15:56:17 UTC.
# USER AGENT: Mozilla/5.0 (Windows NT 6.1; WOW64; rv:52.0) Gecko/20100101 Firefox/52.0
# Design number was non-random = 72
#
# Columns below this comment are as follows:
# 1. Time results were received.
# 2. MD5 hash of participant's IP address.
# 3. Controller name.
# 4. Item number.
# 5. Element number.
# 6. Type.
# 7. Group.
# 8. Field name.
# 9. Field value.
1513698977,3055e45df092c9bb4e93eb60d8c18ec8,Form,0,0,inst,NULL,Language,Yes
1513698977,3055e45df092c9bb4e93eb60d8c18ec8,Form,0,0,inst,NULL,Age,30-49
1513698977,3055e45df092c9bb4e93eb60d8c18ec8,Form,0,0,inst,NULL,Gender,Female
1513698977,3055e45df092c9bb4e93eb60d8c18ec8,Form,0,0,inst,NULL,Education,Ed3
1513698977,3055e45df092c9bb4e93eb60d8c18ec8,Form,0,0,inst,NULL,_REACTION_TIME_,61944
# Columns below this comment are as follows:
# 1. Time results were received.
# 2. MD5 hash of participant's IP address.
# 3. Controller name.
# 4. Item number.
# 5. Element number.
# 6. Type.
# 7. Group.
# 8. Field name.
# 9. Field value.
# 10. Field text.
# 11. Field correct text.
# 12. Field correct.
# 13. _REACTION_TIME_.
1513698977,3055e45df092c9bb4e93eb60d8c18ec8,MessageFormC,21,0,1.orig.train,NULL,who,Sphere,Sphere group,Cube group,False,9132
1513698977,3055e45df092c9bb4e93eb60d8c18ec8,MessageFormC,21,0,1.orig.train,NULL,what,outdoor-mall,a pumping station,an airport,False,9132
1513698977,3055e45df092c9bb4e93eb60d8c18ec8,MessageFormC,21,0,1.orig.train,NULL,where,Bonoboland*,Bonoboland,Bonoboland,True,9132
1513698977,3055e45df092c9bb4e93eb60d8c18ec8,MessageFormC,21,0,1.orig.train,NULL,month,September,September,January,False,9132
1513698977,3055e45df092c9bb4e93eb60d8c18ec8,MessageFormC,21,0,1.orig.train,NULL,day,15,15,1,False,9132
1513698977,3055e45df092c9bb4e93eb60d8c18ec8,MessageFormC,21,0,1.orig.train,NULL,time,10:00,10:00,1:00,False,9132
1513698977,3055e45df092c9bb4e93eb60d8c18ec8,MessageFormC,21,0,1.orig.train,NULL,ampm,PM,PM,AM,False,9132
1513698977,3055e45df092c9bb4e93eb60d8c18ec8,MessageFormC,14,0,1.orig.Scenario1,NULL,who,Coral,Coral group,Violet group,False,14611
1513698977,3055e45df092c9bb4e93eb60d8c18ec8,MessageFormC,14,0,1.orig.Scenario1,NULL,what,embassy,an embassy,a financial institution,False,14611
1513698977,3055e45df092c9bb4e93eb60d8c18ec8,MessageFormC,14,0,1.orig.Scenario1,NULL,where,Tauland,Tauland,Psiland,False,14611
1513698977,3055e45df092c9bb4e93eb60d8c18ec8,MessageFormC,14,0,1.orig.Scenario1,NULL,month,September,September,April,False,14611
1513698977,3055e45df092c9bb4e93eb60d8c18ec8,MessageFormC,14,0,1.orig.Scenario1,NULL,day,19,19,5,False,14611
1513698977,3055e45df092c9bb4e93eb60d8c18ec8,MessageFormC,14,0,1.orig.Scenario1,NULL,time,12:00,12:00,11:00,False,14611
1513698977,3055e45df092c9bb4e93eb60d8c18ec8,MessageFormC,14,0,1.orig.Scenario1,NULL,ampm,AM*,AM,AM,True,14611
# Columns below this comment are as follows:
# 1. Time results were received.
# 2. MD5 hash of participant's IP address.
# 3. Controller name.
# 4. Item number.
# 5. Element number.
# 6. Type.
# 7. Group.
# 8. Field name.
# 9. Field value.
1513698977,3055e45df092c9bb4e93eb60d8c18ec8,Form,25,0,1.orig.comments,NULL,comments,
1513698977,3055e45df092c9bb4e93eb60d8c18ec8,Form,25,0,1.orig.comments,NULL,_REACTION_TIME_,2721
# Columns below this comment are as follows:
# 1. Time results were received.
# 2. MD5 hash of participant's IP address.
# 3. Controller name.
# 4. Item number.
# 5. Element number.
# 6. Type.
# 7. Group.
# 8. Field name.
# 9. Field value.
# 10. Field text.
# 11. Field correct text.
# 12. Field correct.
# 13. _REACTION_TIME_.
1513698977,3055e45df092c9bb4e93eb60d8c18ec8,MessageFormC,17,0,2.ext.train,NULL,who,Sphere,Sphere group,Cube group,False,10946
1513698977,3055e45df092c9bb4e93eb60d8c18ec8,MessageFormC,17,0,2.ext.train,NULL,what,military-base,a military base,an airport,False,10946
1513698977,3055e45df092c9bb4e93eb60d8c18ec8,MessageFormC,17,0,2.ext.train,NULL,where,Bonoboland*,Bonoboland,Bonoboland,True,10946
1513698977,3055e45df092c9bb4e93eb60d8c18ec8,MessageFormC,17,0,2.ext.train,NULL,month,August,August,January,False,10946
1513698977,3055e45df092c9bb4e93eb60d8c18ec8,MessageFormC,17,0,2.ext.train,NULL,day,29,29,1,False,10946
1513698977,3055e45df092c9bb4e93eb60d8c18ec8,MessageFormC,17,0,2.ext.train,NULL,time,10:00,10:00,1:00,False,10946
1513698977,3055e45df092c9bb4e93eb60d8c18ec8,MessageFormC,17,0,2.ext.train,NULL,ampm,AM*,AM,AM,True,10946
1513698977,3055e45df092c9bb4e93eb60d8c18ec8,MessageFormC,12,0,2.ext.Scenario4,NULL,who,Silver*,Silver group,Silver group,True,43273
1513698977,3055e45df092c9bb4e93eb60d8c18ec8,MessageFormC,12,0,2.ext.Scenario4,NULL,what,secular-school*,a secular school,a secular school,True,43273
1513698977,3055e45df092c9bb4e93eb60d8c18ec8,MessageFormC,12,0,2.ext.Scenario4,NULL,where,Omicronland*,Omicronland,Omicronland,True,43273
1513698977,3055e45df092c9bb4e93eb60d8c18ec8,MessageFormC,12,0,2.ext.Scenario4,NULL,month,January*,January,January,True,43273
1513698977,3055e45df092c9bb4e93eb60d8c18ec8,MessageFormC,12,0,2.ext.Scenario4,NULL,day,1*,1,1,True,43273
1513698977,3055e45df092c9bb4e93eb60d8c18ec8,MessageFormC,12,0,2.ext.Scenario4,NULL,time,9:00*,9:00,9:00,True,43273
1513698977,3055e45df092c9bb4e93eb60d8c18ec8,MessageFormC,12,0,2.ext.Scenario4,NULL,ampm,AM*,AM,AM,True,43273
# Columns below this comment are as follows:
# 1. Time results were received.
# 2. MD5 hash of participant's IP address.
# 3. Controller name.
# 4. Item number.
# 5. Element number.
# 6. Type.
# 7. Group.
# 8. Field name.
# 9. Field value.
1513698977,3055e45df092c9bb4e93eb60d8c18ec8,Form,24,0,2.ext.comments,NULL,comments,
1513698977,3055e45df092c9bb4e93eb60d8c18ec8,Form,24,0,2.ext.comments,NULL,_REACTION_TIME_,1151
1513698977,3055e45df092c9bb4e93eb60d8c18ec8,Form,26,0,end.a,NULL,mental,6
1513698977,3055e45df092c9bb4e93eb60d8c18ec8,Form,26,0,end.a,NULL,physical,6
1513698977,3055e45df092c9bb4e93eb60d8c18ec8,Form,26,0,end.a,NULL,temp,6
1513698977,3055e45df092c9bb4e93eb60d8c18ec8,Form,26,0,end.a,NULL,success,6
1513698977,3055e45df092c9bb4e93eb60d8c18ec8,Form,26,0,end.a,NULL,perf,6
1513698977,3055e45df092c9bb4e93eb60d8c18ec8,Form,26,0,end.a,NULL,stress,6
1513698977,3055e45df092c9bb4e93eb60d8c18ec8,Form,26,0,end.a,NULL,preference,6
1513698977,3055e45df092c9bb4e93eb60d8c18ec8,Form,26,0,end.a,NULL,_REACTION_TIME_,7944
#
# Results on Tuesday December 19 2017 15:58:29 UTC.
# USER AGENT: Mozilla/5.0 (Windows NT 6.1; WOW64; rv:52.0) Gecko/20100101 Firefox/52.0
# Design number was non-random = 73
#
# Columns below this comment are as follows:
# 1. Time results were received.
# 2. MD5 hash of participant's IP address.
# 3. Controller name.
# 4. Item number.
# 5. Element number.
# 6. Type.
# 7. Group.
# 8. Field name.
# 9. Field value.
1513699110,3055e45df092c9bb4e93eb60d8c18ec8,Form,0,0,inst,NULL,Language,Yes
1513699110,3055e45df092c9bb4e93eb60d8c18ec8,Form,0,0,inst,NULL,Age,30-49
1513699110,3055e45df092c9bb4e93eb60d8c18ec8,Form,0,0,inst,NULL,Gender,Female
1513699110,3055e45df092c9bb4e93eb60d8c18ec8,Form,0,0,inst,NULL,Education,Ed3
1513699110,3055e45df092c9bb4e93eb60d8c18ec8,Form,0,0,inst,NULL,_REACTION_TIME_,7807
# Columns below this comment are as follows:
# 1. Time results were received.
# 2. MD5 hash of participant's IP address.
# 3. Controller name.
# 4. Item number.
# 5. Element number.
# 6. Type.
# 7. Group.
# 8. Field name.
# 9. Field value.
# 10. Field text.
# 11. Field correct text.
# 12. Field correct.
# 13. _REACTION_TIME_.
1513699110,3055e45df092c9bb4e93eb60d8c18ec8,MessageFormC,17,0,1.ext.train,NULL,who,Tetrahedron,Tetrahedron group,Cube group,False,11444
1513699110,3055e45df092c9bb4e93eb60d8c18ec8,MessageFormC,17,0,1.ext.train,NULL,what,outdoor-mall,a pumping station,an airport,False,11444
1513699110,3055e45df092c9bb4e93eb60d8c18ec8,MessageFormC,17,0,1.ext.train,NULL,where,Gibbonland,Gibbonland,Bonoboland,False,11444
1513699110,3055e45df092c9bb4e93eb60d8c18ec8,MessageFormC,17,0,1.ext.train,NULL,month,July,July,January,False,11444
1513699110,3055e45df092c9bb4e93eb60d8c18ec8,MessageFormC,17,0,1.ext.train,NULL,day,30,30,1,False,11444
1513699110,3055e45df092c9bb4e93eb60d8c18ec8,MessageFormC,17,0,1.ext.train,NULL,time,7:00,7:00,1:00,False,11444
1513699110,3055e45df092c9bb4e93eb60d8c18ec8,MessageFormC,17,0,1.ext.train,NULL,ampm,AM*,AM,AM,True,11444
1513699110,3055e45df092c9bb4e93eb60d8c18ec8,MessageFormC,13,0,1.ext.Scenario8,NULL,who,Charger*,Charger group,Charger group,True,44604
1513699110,3055e45df092c9bb4e93eb60d8c18ec8,MessageFormC,13,0,1.ext.Scenario8,NULL,what,indoor-mall*,an indoor mall,an indoor mall,True,44604
1513699110,3055e45df092c9bb4e93eb60d8c18ec8,MessageFormC,13,0,1.ext.Scenario8,NULL,where,Salmonland*,Salmonland,Salmonland,True,44604
1513699110,3055e45df092c9bb4e93eb60d8c18ec8,MessageFormC,13,0,1.ext.Scenario8,NULL,month,December*,December,December,True,44604
1513699110,3055e45df092c9bb4e93eb60d8c18ec8,MessageFormC,13,0,1.ext.Scenario8,NULL,day,15*,15,15,True,44604
1513699110,3055e45df092c9bb4e93eb60d8c18ec8,MessageFormC,13,0,1.ext.Scenario8,NULL,time,10:00*,10:00,10:00,True,44604
1513699110,3055e45df092c9bb4e93eb60d8c18ec8,MessageFormC,13,0,1.ext.Scenario8,NULL,ampm,AM*,AM,AM,True,44604
# Columns below this comment are as follows:
# 1. Time results were received.
# 2. MD5 hash of participant's IP address.
# 3. Controller name.
# 4. Item number.
# 5. Element number.
# 6. Type.
# 7. Group.
# 8. Field name.
# 9. Field value.
1513699110,3055e45df092c9bb4e93eb60d8c18ec8,Form,24,0,1.ext.comments,NULL,comments,
1513699110,3055e45df092c9bb4e93eb60d8c18ec8,Form,24,0,1.ext.comments,NULL,_REACTION_TIME_,1550
# Columns below this comment are as follows:
# 1. Time results were received.
# 2. MD5 hash of participant's IP address.
# 3. Controller name.
# 4. Item number.
# 5. Element number.
# 6. Type.
# 7. Group.
# 8. Field name.
# 9. Field value.
# 10. Field text.
# 11. Field correct text.
# 12. Field correct.
# 13. _REACTION_TIME_.
1513699110,3055e45df092c9bb4e93eb60d8c18ec8,MessageFormC,21,0,2.orig.train,NULL,who,Tetrahedron,Tetrahedron group,Cube group,False,12499
1513699110,3055e45df092c9bb4e93eb60d8c18ec8,MessageFormC,21,0,2.orig.train,NULL,what,outdoor-mall,a pumping station,an airport,False,12499
1513699110,3055e45df092c9bb4e93eb60d8c18ec8,MessageFormC,21,0,2.orig.train,NULL,where,Gibbonland,Gibbonland,Bonoboland,False,12499
1513699110,3055e45df092c9bb4e93eb60d8c18ec8,MessageFormC,21,0,2.orig.train,NULL,month,October,October,January,False,12499
1513699110,3055e45df092c9bb4e93eb60d8c18ec8,MessageFormC,21,0,2.orig.train,NULL,day,15,15,1,False,12499
1513699110,3055e45df092c9bb4e93eb60d8c18ec8,MessageFormC,21,0,2.orig.train,NULL,time,6:00,6:00,1:00,False,12499
1513699110,3055e45df092c9bb4e93eb60d8c18ec8,MessageFormC,21,0,2.orig.train,NULL,ampm,PM,PM,AM,False,12499
1513699110,3055e45df092c9bb4e93eb60d8c18ec8,MessageFormC,15,0,2.orig.Scenario7,NULL,who,Triangle*,Triangle group,Triangle group,True,13597
1513699110,3055e45df092c9bb4e93eb60d8c18ec8,MessageFormC,15,0,2.orig.Scenario7,NULL,what,hospital,a hospital,a cruise terminal,False,13597
1513699110,3055e45df092c9bb4e93eb60d8c18ec8,MessageFormC,15,0,2.orig.Scenario7,NULL,where,Flyland,Flyland,Tickland,False,13597
1513699110,3055e45df092c9bb4e93eb60d8c18ec8,MessageFormC,15,0,2.orig.Scenario7,NULL,month,October,October,September,False,13597
1513699110,3055e45df092c9bb4e93eb60d8c18ec8,MessageFormC,15,0,2.orig.Scenario7,NULL,day,17,17,1,False,13597
1513699110,3055e45df092c9bb4e93eb60d8c18ec8,MessageFormC,15,0,2.orig.Scenario7,NULL,time,3:00,3:00,10:00,False,13597
1513699110,3055e45df092c9bb4e93eb60d8c18ec8,MessageFormC,15,0,2.orig.Scenario7,NULL,ampm,AM,AM,PM,False,13597
# Columns below this comment are as follows:
# 1. Time results were received.
# 2. MD5 hash of participant's IP address.
# 3. Controller name.
# 4. Item number.
# 5. Element number.
# 6. Type.
# 7. Group.
# 8. Field name.
# 9. Field value.
1513699110,3055e45df092c9bb4e93eb60d8c18ec8,Form,25,0,2.orig.comments,NULL,comments,
1513699110,3055e45df092c9bb4e93eb60d8c18ec8,Form,25,0,2.orig.comments,NULL,_REACTION_TIME_,1832
1513699110,3055e45df092c9bb4e93eb60d8c18ec8,Form,26,0,end.b,NULL,mental,20
1513699110,3055e45df092c9bb4e93eb60d8c18ec8,Form,26,0,end.b,NULL,physical,20
1513699110,3055e45df092c9bb4e93eb60d8c18ec8,Form,26,0,end.b,NULL,temp,20
1513699110,3055e45df092c9bb4e93eb60d8c18ec8,Form,26,0,end.b,NULL,success,20
1513699110,3055e45df092c9bb4e93eb60d8c18ec8,Form,26,0,end.b,NULL,perf,20
1513699110,3055e45df092c9bb4e93eb60d8c18ec8,Form,26,0,end.b,NULL,stress,20
1513699110,3055e45df092c9bb4e93eb60d8c18ec8,Form,26,0,end.b,NULL,preference,20
1513699110,3055e45df092c9bb4e93eb60d8c18ec8,Form,26,0,end.b,NULL,_REACTION_TIME_,8206
#
# Results on Tuesday December 19 2017 16:00:10 UTC.
# USER AGENT: Mozilla/5.0 (Windows NT 6.1; WOW64; rv:52.0) Gecko/20100101 Firefox/52.0
# Design number was non-random = 74
#
# Columns below this comment are as follows:
# 1. Time results were received.
# 2. MD5 hash of participant's IP address.
# 3. Controller name.
# 4. Item number.
# 5. Element number.
# 6. Type.
# 7. Group.
# 8. Field name.
# 9. Field value.
1513699211,3055e45df092c9bb4e93eb60d8c18ec8,Form,0,0,inst,NULL,Language,Yes
1513699211,3055e45df092c9bb4e93eb60d8c18ec8,Form,0,0,inst,NULL,Age,30-49
1513699211,3055e45df092c9bb4e93eb60d8c18ec8,Form,0,0,inst,NULL,Gender,Female
1513699211,3055e45df092c9bb4e93eb60d8c18ec8,Form,0,0,inst,NULL,Education,Ed3
1513699211,3055e45df092c9bb4e93eb60d8c18ec8,Form,0,0,inst,NULL,_REACTION_TIME_,7938
# Columns below this comment are as follows:
# 1. Time results were received.
# 2. MD5 hash of participant's IP address.
# 3. Controller name.
# 4. Item number.
# 5. Element number.
# 6. Type.
# 7. Group.
# 8. Field name.
# 9. Field value.
# 10. Field text.
# 11. Field correct text.
# 12. Field correct.
# 13. _REACTION_TIME_.
1513699211,3055e45df092c9bb4e93eb60d8c18ec8,MessageFormC,21,0,1.orig.train,NULL,who,Tetrahedron,Tetrahedron group,Cube group,False,9220
1513699211,3055e45df092c9bb4e93eb60d8c18ec8,MessageFormC,21,0,1.orig.train,NULL,what,military-base,a military base,an airport,False,9220
1513699211,3055e45df092c9bb4e93eb60d8c18ec8,MessageFormC,21,0,1.orig.train,NULL,where,Gibbonland,Gibbonland,Bonoboland,False,9220
1513699211,3055e45df092c9bb4e93eb60d8c18ec8,MessageFormC,21,0,1.orig.train,NULL,month,July,July,January,False,9220
1513699211,3055e45df092c9bb4e93eb60d8c18ec8,MessageFormC,21,0,1.orig.train,NULL,day,16,16,1,False,9220
1513699211,3055e45df092c9bb4e93eb60d8c18ec8,MessageFormC,21,0,1.orig.train,NULL,time,5:00,5:00,1:00,False,9220
1513699211,3055e45df092c9bb4e93eb60d8c18ec8,MessageFormC,21,0,1.orig.train,NULL,ampm,AM*,AM,AM,True,9220
1513699211,3055e45df092c9bb4e93eb60d8c18ec8,MessageFormC,15,0,1.orig.Scenario8,NULL,who,Raven,Raven group,Charger group,False,11586
1513699211,3055e45df092c9bb4e93eb60d8c18ec8,MessageFormC,15,0,1.orig.Scenario8,NULL,what,outdoor-mall,an outdoor mall,an indoor mall,False,11586
1513699211,3055e45df092c9bb4e93eb60d8c18ec8,MessageFormC,15,0,1.orig.Scenario8,NULL,where,Troutland,Troutland,Salmonland,False,11586
1513699211,3055e45df092c9bb4e93eb60d8c18ec8,MessageFormC,15,0,1.orig.Scenario8,NULL,month,October,October,December,False,11586
1513699211,3055e45df092c9bb4e93eb60d8c18ec8,MessageFormC,15,0,1.orig.Scenario8,NULL,day,29,29,15,False,11586
1513699211,3055e45df092c9bb4e93eb60d8c18ec8,MessageFormC,15,0,1.orig.Scenario8,NULL,time,10:00*,10:00,10:00,True,11586
1513699211,3055e45df092c9bb4e93eb60d8c18ec8,MessageFormC,15,0,1.orig.Scenario8,NULL,ampm,AM*,AM,AM,True,11586
# Columns below this comment are as follows:
# 1. Time results were received.
# 2. MD5 hash of participant's IP address.
# 3. Controller name.
# 4. Item number.
# 5. Element number.
# 6. Type.
# 7. Group.
# 8. Field name.
# 9. Field value.
1513699211,3055e45df092c9bb4e93eb60d8c18ec8,Form,25,0,1.orig.comments,NULL,comments,
1513699211,3055e45df092c9bb4e93eb60d8c18ec8,Form,25,0,1.orig.comments,NULL,_REACTION_TIME_,907
# Columns below this comment are as follows:
# 1. Time results were received.
# 2. MD5 hash of participant's IP address.
# 3. Controller name.
# 4. Item number.
# 5. Element number.
# 6. Type.
# 7. Group.
# 8. Field name.
# 9. Field value.
# 10. Field text.
# 11. Field correct text.
# 12. Field correct.
# 13. _REACTION_TIME_.
1513699211,3055e45df092c9bb4e93eb60d8c18ec8,MessageFormC,17,0,2.ext.train,NULL,who,Sphere,Sphere group,Cube group,False,9278
1513699211,3055e45df092c9bb4e93eb60d8c18ec8,MessageFormC,17,0,2.ext.train,NULL,what,airport*,an airport,an airport,True,9278
1513699211,3055e45df092c9bb4e93eb60d8c18ec8,MessageFormC,17,0,2.ext.train,NULL,where,Lemurland,Lemurland,Bonoboland,False,9278
1513699211,3055e45df092c9bb4e93eb60d8c18ec8,MessageFormC,17,0,2.ext.train,NULL,month,June,June,January,False,9278
1513699211,3055e45df092c9bb4e93eb60d8c18ec8,MessageFormC,17,0,2.ext.train,NULL,day,30,30,1,False,9278
1513699211,3055e45df092c9bb4e93eb60d8c18ec8,MessageFormC,17,0,2.ext.train,NULL,time,4:00,4:00,1:00,False,9278
1513699211,3055e45df092c9bb4e93eb60d8c18ec8,MessageFormC,17,0,2.ext.train,NULL,ampm,AM*,AM,AM,True,9278
1513699211,3055e45df092c9bb4e93eb60d8c18ec8,MessageFormC,13,0,2.ext.Scenario7,NULL,who,Triangle*,Triangle group,Triangle group,True,31724
1513699211,3055e45df092c9bb4e93eb60d8c18ec8,MessageFormC,13,0,2.ext.Scenario7,NULL,what,cruise-terminal*,a cruise terminal,a cruise terminal,True,31724
1513699211,3055e45df092c9bb4e93eb60d8c18ec8,MessageFormC,13,0,2.ext.Scenario7,NULL,where,Tickland*,Tickland,Tickland,True,31724
1513699211,3055e45df092c9bb4e93eb60d8c18ec8,MessageFormC,13,0,2.ext.Scenario7,NULL,month,September*,September,September,True,31724
1513699211,3055e45df092c9bb4e93eb60d8c18ec8,MessageFormC,13,0,2.ext.Scenario7,NULL,day,1*,1,1,True,31724
1513699211,3055e45df092c9bb4e93eb60d8c18ec8,MessageFormC,13,0,2.ext.Scenario7,NULL,time,10:00*,10:00,10:00,True,31724
1513699211,3055e45df092c9bb4e93eb60d8c18ec8,MessageFormC,13,0,2.ext.Scenario7,NULL,ampm,PM*,PM,PM,True,31724
# Columns below this comment are as follows:
# 1. Time results were received.
# 2. MD5 hash of participant's IP address.
# 3. Controller name.
# 4. Item number.
# 5. Element number.
# 6. Type.
# 7. Group.
# 8. Field name.
# 9. Field value.
1513699211,3055e45df092c9bb4e93eb60d8c18ec8,Form,24,0,2.ext.comments,NULL,comments,
1513699211,3055e45df092c9bb4e93eb60d8c18ec8,Form,24,0,2.ext.comments,NULL,_REACTION_TIME_,1075
1513699211,3055e45df092c9bb4e93eb60d8c18ec8,Form,26,0,end.b,NULL,mental,11
1513699211,3055e45df092c9bb4e93eb60d8c18ec8,Form,26,0,end.b,NULL,physical,11
1513699211,3055e45df092c9bb4e93eb60d8c18ec8,Form,26,0,end.b,NULL,temp,11
1513699211,3055e45df092c9bb4e93eb60d8c18ec8,Form,26,0,end.b,NULL,success,11
1513699211,3055e45df092c9bb4e93eb60d8c18ec8,Form,26,0,end.b,NULL,perf,11
1513699211,3055e45df092c9bb4e93eb60d8c18ec8,Form,26,0,end.b,NULL,stress,11
1513699211,3055e45df092c9bb4e93eb60d8c18ec8,Form,26,0,end.b,NULL,preference,11
1513699211,3055e45df092c9bb4e93eb60d8c18ec8,Form,26,0,end.b,NULL,_REACTION_TIME_,8823
#
# Results on Tuesday December 19 2017 16:01:49 UTC.
# USER AGENT: Mozilla/5.0 (Windows NT 6.1; WOW64; rv:52.0) Gecko/20100101 Firefox/52.0
# Design number was non-random = 75
#
# Columns below this comment are as follows:
# 1. Time results were received.
# 2. MD5 hash of participant's IP address.
# 3. Controller name.
# 4. Item number.
# 5. Element number.
# 6. Type.
# 7. Group.
# 8. Field name.
# 9. Field value.
1513699310,3055e45df092c9bb4e93eb60d8c18ec8,Form,0,0,inst,NULL,Language,Yes
1513699310,3055e45df092c9bb4e93eb60d8c18ec8,Form,0,0,inst,NULL,Age,30-49
1513699310,3055e45df092c9bb4e93eb60d8c18ec8,Form,0,0,inst,NULL,Gender,Female
1513699310,3055e45df092c9bb4e93eb60d8c18ec8,Form,0,0,inst,NULL,Education,Ed3
1513699310,3055e45df092c9bb4e93eb60d8c18ec8,Form,0,0,inst,NULL,_REACTION_TIME_,5080
# Columns below this comment are as follows:
# 1. Time results were received.
# 2. MD5 hash of participant's IP address.
# 3. Controller name.
# 4. Item number.
# 5. Element number.
# 6. Type.
# 7. Group.
# 8. Field name.
# 9. Field value.
# 10. Field text.
# 11. Field correct text.
# 12. Field correct.
# 13. _REACTION_TIME_.
1513699310,3055e45df092c9bb4e93eb60d8c18ec8,MessageFormC,17,0,1.ext.train,NULL,who,Sphere,Sphere group,Cube group,False,10767
1513699310,3055e45df092c9bb4e93eb60d8c18ec8,MessageFormC,17,0,1.ext.train,NULL,what,military-base,a military base,an airport,False,10767
1513699310,3055e45df092c9bb4e93eb60d8c18ec8,MessageFormC,17,0,1.ext.train,NULL,where,Lemurland,Lemurland,Bonoboland,False,10767
1513699310,3055e45df092c9bb4e93eb60d8c18ec8,MessageFormC,17,0,1.ext.train,NULL,month,October,October,January,False,10767
1513699310,3055e45df092c9bb4e93eb60d8c18ec8,MessageFormC,17,0,1.ext.train,NULL,day,16,16,1,False,10767
1513699310,3055e45df092c9bb4e93eb60d8c18ec8,MessageFormC,17,0,1.ext.train,NULL,time,8:00,8:00,1:00,False,10767
1513699310,3055e45df092c9bb4e93eb60d8c18ec8,MessageFormC,17,0,1.ext.train,NULL,ampm,AM*,AM,AM,True,10767
1513699310,3055e45df092c9bb4e93eb60d8c18ec8,MessageFormC,12,0,1.ext.Scenario7,NULL,who,Triangle*,Triangle group,Triangle group,True,25592
1513699310,3055e45df092c9bb4e93eb60d8c18ec8,MessageFormC,12,0,1.ext.Scenario7,NULL,what,cruise-terminal*,a cruise terminal,a cruise terminal,True,25592
1513699310,3055e45df092c9bb4e93eb60d8c18ec8,MessageFormC,12,0,1.ext.Scenario7,NULL,where,Tickland*,Tickland,Tickland,True,25592
1513699310,3055e45df092c9bb4e93eb60d8c18ec8,MessageFormC,12,0,1.ext.Scenario7,NULL,month,December,December,September,False,25592
1513699310,3055e45df092c9bb4e93eb60d8c18ec8,MessageFormC,12,0,1.ext.Scenario7,NULL,day,15,15,1,False,25592
1513699310,3055e45df092c9bb4e93eb60d8c18ec8,MessageFormC,12,0,1.ext.Scenario7,NULL,time,10:00*,10:00,10:00,True,25592
1513699310,3055e45df092c9bb4e93eb60d8c18ec8,MessageFormC,12,0,1.ext.Scenario7,NULL,ampm,AM,AM,PM,False,25592
# Columns below this comment are as follows:
# 1. Time results were received.
# 2. MD5 hash of participant's IP address.
# 3. Controller name.
# 4. Item number.
# 5. Element number.
# 6. Type.
# 7. Group.
# 8. Field name.
# 9. Field value.
1513699310,3055e45df092c9bb4e93eb60d8c18ec8,Form,24,0,1.ext.comments,NULL,comments,
1513699310,3055e45df092c9bb4e93eb60d8c18ec8,Form,24,0,1.ext.comments,NULL,_REACTION_TIME_,981
# Columns below this comment are as follows:
# 1. Time results were received.
# 2. MD5 hash of participant's IP address.
# 3. Controller name.
# 4. Item number.
# 5. Element number.
# 6. Type.
# 7. Group.
# 8. Field name.
# 9. Field value.
# 10. Field text.
# 11. Field correct text.
# 12. Field correct.
# 13. _REACTION_TIME_.
1513699310,3055e45df092c9bb4e93eb60d8c18ec8,MessageFormC,21,0,2.orig.train,NULL,who,Cube*,Cube group,Cube group,True,9661
1513699310,3055e45df092c9bb4e93eb60d8c18ec8,MessageFormC,21,0,2.orig.train,NULL,what,outdoor-mall,a pumping station,an airport,False,9661
1513699310,3055e45df092c9bb4e93eb60d8c18ec8,MessageFormC,21,0,2.orig.train,NULL,where,Gibbonland,Gibbonland,Bonoboland,False,9661
1513699310,3055e45df092c9bb4e93eb60d8c18ec8,MessageFormC,21,0,2.orig.train,NULL,month,October,October,January,False,9661
1513699310,3055e45df092c9bb4e93eb60d8c18ec8,MessageFormC,21,0,2.orig.train,NULL,day,16,16,1,False,9661
1513699310,3055e45df092c9bb4e93eb60d8c18ec8,MessageFormC,21,0,2.orig.train,NULL,time,8:00,8:00,1:00,False,9661
1513699310,3055e45df092c9bb4e93eb60d8c18ec8,MessageFormC,21,0,2.orig.train,NULL,ampm,PM,PM,AM,False,9661
1513699310,3055e45df092c9bb4e93eb60d8c18ec8,MessageFormC,14,0,2.orig.Scenario1,NULL,who,Coral,Coral group,Violet group,False,10990
